"# PDIoT walking data"
"# Start time: 20190924T084837"
"# Group: A"
"# Subject: Collecting"
"# Activity type: Walking (level ground)"
"# Sensor position: Torso"
"# Side of body: Left"
"# Sensor mounting: Pocket"
"# Number of steps: 30"
"# Notes: 2"
""
"timestamp","seq","accel_x","accel_y","accel_z","gyro_x","gyro_y","gyro_z"
"1569311317324","0","-0.9375","0.2998047","0.08984375","-20.53125","16.28125","1.21875"
"1569311317409","1","-0.9736328","0.24511719","0.125","-25.15625","15.375","-2.75"
"1569311317499","2","-0.9394531","0.23046875","0.083984375","-29.6875","15.96875","-4.84375"
"1569311317626","3","-0.9609375","0.24414062","0.08984375","-20.03125","10.125","-5.5"
"1569311317720","4","-0.98046875","0.20214844","0.09667969","-9.78125","4.5625","-9.84375"
"1569311317803","5","-0.98339844","0.21679688","0.15332031","10.90625","-4.78125","-11.84375"
"1569311317920","6","-1.2119141","0.32714844","0.119140625","26.71875","-19.125","-5.375"
"1569311318012","7","-1.0273438","0.16992188","-0.06738281","-15.875","-21.5625","-5.625"
"1569311318103","8","-0.9091797","0.0107421875","-0.060546875","-12.84375","-8.625","-3.0"
"1569311318223","9","-0.93652344","0.12988281","0.06347656","-2.59375","-8.375","-2.03125"
"1569311318311","10","-0.8496094","0.18457031","0.1171875","0.15625","8.28125","0.28125"
"1569311318403","11","-0.92578125","0.14941406","0.16210938","16.9375","8.03125","3.59375"
"1569311318520","12","-0.9316406","0.24316406","0.16894531","17.875","7.1875","7.625"
"1569311318614","13","-1.0566406","0.11328125","0.2861328","6.15625","0.78125","0.65625"
"1569311318704","14","-1.3818359","0.3251953","0.026367188","-11.5625","-5.8125","23.25"
"1569311318823","15","-0.86035156","0.3017578","-0.23730469","-79.53125","22.03125","8.40625"
"1569311318914","16","-0.9082031","0.13378906","0.0029296875","-61.40625","10.25","-1.59375"
"1569311319003","17","-0.81347656","0.21484375","-0.0029296875","-51.78125","5.90625","-6.84375"
"1569311319127","18","-0.9238281","0.24414062","0.07421875","-44.75","8.28125","-7.875"
"1569311319210","19","-0.9042969","0.25683594","0.12207031","-37.84375","-10.4375","-8.9375"
"1569311319304","20","-0.9980469","0.3173828","0.16113281","-26.5625","-1.1875","-4.34375"
"1569311319420","21","-1.375","0.2685547","0.051757812","-10.75","-32.78125","12.4375"
"1569311319512","22","-0.96777344","-0.021484375","-0.20605469","47.21875","24.15625","-9.21875"
"1569311319601","23","-0.8339844","0.16796875","0.005859375","-13.5","-5.75","-1.71875"
"1569311319692","24","-0.82714844","0.109375","0.078125","24.40625","15.71875","3.15625"
"1569311319811","25","-0.890625","0.23925781","0.16992188","-1.0","13.65625","-0.25"
"1569311319903","26","-0.8964844","0.22949219","0.15039062","-10.8125","20.625","3.71875"
"1569311319991","27","-1.1142578","0.10253906","0.2607422","-10.4375","-1.25","5.21875"
"1569311320114","28","-1.2460938","0.31152344","-0.072265625","-25.40625","-2.75","24.34375"
"1569311320201","29","-0.9658203","0.375","-0.20117188","-76.625","29.9375","10.3125"
"1569311320323","30","-0.80371094","0.171875","-0.057617188","-83.625","24.46875","-7.21875"
"1569311320413","31","-0.85058594","0.2734375","-0.022460938","-84.90625","12.25","-5.875"
"1569311320502","32","-0.8886719","0.21484375","0.0703125","-46.46875","11.03125","-6.59375"
"1569311320593","33","-0.8964844","0.27441406","0.061523438","-51.71875","-2.03125","-9.96875"
"1569311320715","34","-1.2226562","0.31445312","0.36621094","10.25","-1.78125","-2.34375"
"1569311320803","35","-1.2480469","0.21289062","-0.08300781","-30.71875","-20.71875","9.625"
"1569311320891","36","-0.91503906","-0.030273438","-0.15917969","57.96875","-27.0625","4.0625"
"1569311321011","37","-0.78027344","0.080078125","0.0029296875","-8.8125","9.09375","-8.375"
"1569311321103","38","-0.8515625","0.21875","0.18847656","61.5625","20.90625","4.5"
"1569311321190","39","-0.9033203","0.27148438","0.30273438","11.09375","12.9375","-2.21875"
"1569311321350","40","-0.90234375","0.20703125","0.12597656","3.71875","14.5","10.25"
"1569311321404","41","-1.3457031","0.33691406","0.15039062","-9.84375","-18.875","17.5"
"1569311321497","42","-1.1171875","0.33007812","-0.23828125","-64.34375","9.9375","15.125"
"1569311321613","43","-0.9550781","0.12207031","-0.03125","-43.78125","21.40625","1.875"
"1569311321701","44","-0.7138672","0.1171875","-0.057617188","-71.84375","4.125","-10.34375"
"1569311321823","45","-0.86816406","0.23144531","0.02734375","-38.15625","4.375","-5.8125"
"1569311321914","46","-0.9082031","0.27441406","0.16015625","-23.21875","1.9375","-8.1875"
"1569311322002","47","-0.95996094","0.3486328","0.1015625","-12.65625","4.6875","-6.1875"
"1569311322092","48","-1.484375","0.2607422","0.16210938","9.6875","-36.03125","8.53125"
"1569311322210","49","-1.1210938","-0.11425781","-0.28710938","-30.09375","-13.625","0.15625"
"1569311322302","50","-0.84375","0.12792969","0.07421875","35.09375","-18.25","2.96875"
"1569311322391","51","-0.6875","0.28320312","0.16113281","5.28125","22.4375","-11.625"
"1569311322511","52","-0.93847656","0.0234375","-0.0146484375","63.21875","13.53125","6.21875"
"1569311322630","53","-0.91796875","0.18945312","0.17480469","-0.75","5.84375","0.78125"
"1569311322691","54","-1.015625","0.15917969","0.19335938","-23.875","-0.125","8.53125"
"1569311322810","55","-1.4658203","0.31933594","0.07128906","6.21875","-24.4375","28.3125"
"1569311322901","56","-1.1708984","0.36621094","-0.14453125","-93.59375","-13.3125","4.5625"
"1569311322992","57","-0.8955078","-0.01171875","-0.017578125","-28.875","24.71875","-15.53125"
"1569311323115","58","-0.8330078","0.078125","0.061523438","16.46875","12.75","-16.3125"
"1569311323202","59","-0.9404297","0.14355469","0.020507812","5.46875","17.875","-18.4375"
"1569311323294","60","-0.921875","0.13183594","0.059570312","13.65625","5.59375","-11.0"
"1569311323410","61","-0.9794922","0.20507812","0.05078125","3.90625","21.03125","-12.59375"
"1569311323503","62","-1.2578125","0.23632812","0.103515625","27.8125","-16.0","10.84375"
"1569311323591","63","-0.9589844","-0.016601562","-0.024414062","-5.25","-14.53125","8.96875"
"1569311323711","64","-0.9970703","0.06347656","-0.14550781","75.59375","-74.28125","-1.84375"
"1569311323803","65","-1.0810547","-0.0546875","-0.13671875","61.09375","-9.78125","-3.75"
"1569311323893","66","-1.0654297","0.020507812","-0.06738281","30.875","2.84375","-20.15625"
"1569311324009","67","-0.9707031","0.19042969","0.13671875","33.90625","51.9375","-5.625"
"1569311324099","68","-1.0449219","0.017578125","0.14355469","125.84375","2.90625","19.21875"
"1569311324189","69","-0.90722656","0.23535156","-0.03515625","53.75","-33.875","12.625"
"1569311324310","70","-0.9453125","0.18457031","0.15136719","-3.625","-15.21875","-5.8125"
"1569311324400","71","-0.9638672","0.2890625","0.15332031","-52.03125","-13.03125","-1.3125"
"1569311324490","72","-0.95214844","0.10058594","0.036132812","11.65625","7.5625","3.90625"
"1569311324613","73","-0.9638672","0.08984375","0.07714844","17.625","8.46875","-3.5625"
"1569311324701","74","-0.9550781","0.15820312","0.01953125","19.75","3.71875","-5.5625"
"1569311324793","75","-1.0126953","0.23046875","0.0546875","8.15625","-3.25","2.125"
"1569311324912","76","-1.0332031","0.22265625","0.09375","-24.4375","-6.1875","-0.6875"
"1569311325002","77","-0.9902344","0.15039062","0.078125","-18.21875","6.8125","-3.8125"
"1569311325094","78","-1.0107422","0.15820312","0.18652344","-31.6875","5.59375","-5.15625"
"1569311325212","79","-0.93652344","0.13378906","0.12011719","-38.53125","5.0625","-1.25"
"1569311325304","80","-0.9638672","0.14453125","0.13964844","-47.8125","9.03125","0.15625"
"1569311325394","81","-0.9785156","0.119140625","0.13867188","-38.96875","13.59375","2.71875"
"1569311325513","82","-0.9658203","0.12695312","0.19140625","-48.0625","14.09375","1.75"
"1569311325600","83","-0.96191406","0.15332031","0.25390625","-49.15625","13.15625","5.65625"
"1569311325691","84","-1.0615234","0.15136719","0.25976562","-15.53125","3.71875","17.25"
"1569311325814","85","-1.2558594","0.24023438","0.013671875","32.15625","9.9375","18.90625"
"1569311325902","86","-0.90527344","0.09277344","-0.16015625","-66.1875","6.75","-5.625"
"1569311326021","87","-0.8886719","0.203125","-0.0068359375","-62.21875","4.9375","-0.875"
"1569311326147","88","-0.8173828","0.22167969","-0.0029296875","-55.875","5.125","-1.90625"
"1569311326200","89","-0.9042969","0.20117188","0.13476562","-1.78125","17.0","-2.21875"
"1569311326290","90","-0.9892578","0.19921875","0.12011719","17.5625","-2.34375","-13.03125"
"1569311326477","91","-1.265625","0.2626953","0.2998047","38.0","-19.5","-17.03125"
"1569311326498","92","-1.2138672","0.14550781","-0.043945312","0.03125","-28.59375","3.71875"
"1569311326589","93","-0.85058594","-0.08300781","-0.11425781","23.375","-27.65625","2.375"
"1569311326710","94","-0.8076172","0.01953125","-0.00390625","-0.5","13.34375","-12.15625"
"1569311326801","95","-0.859375","-0.022460938","0.14550781","91.90625","9.125","-3.875"
"1569311326889","96","-0.89453125","0.23046875","0.17382812","38.25","15.5625","0.03125"
"1569311327011","97","-0.9345703","0.17773438","0.08886719","19.28125","14.875","15.5625"
"1569311327099","98","-1.2841797","0.29492188","0.14257812","-3.75","-19.90625","22.3125"
"1569311327189","99","-1.1123047","0.16503906","-0.21191406","-63.375","-9.34375","16.40625"
"1569311327372","100","-0.92285156","0.049804688","-0.07910156","-54.59375","16.9375","12.25"
"1569311327399","101","-0.69433594","0.01953125","0.021484375","-45.1875","-6.0","-5.875"
"1569311327490","102","-0.89453125","0.21386719","0.119140625","-9.90625","7.6875","-2.75"
"1569311327610","103","-0.92089844","0.22949219","0.24121094","-14.65625","-3.6875","-10.8125"
"1569311327762","104","-0.99121094","0.35839844","0.12988281","1.09375","0.65625","-2.9375"
"1569311327788","105","-1.5292969","0.16601562","-0.034179688","18.53125","-36.09375","8.96875"
"1569311327909","106","-1.0839844","-0.25878906","-0.19628906","89.65625","3.15625","-16.5625"
"1569311327999","107","-0.7167969","0.08105469","-0.0107421875","48.8125","-20.59375","-17.09375"
"1569311328090","108","-0.8300781","0.23144531","0.16210938","148.71875","25.9375","6.6875"
"1569311328209","109","-0.9902344","0.24023438","0.33203125","64.1875","13.28125","-10.28125"
"1569311328300","110","-0.87597656","0.22558594","0.13867188","26.0","2.84375","8.78125"
"1569311328421","111","-1.1777344","0.16699219","0.3330078","26.84375","-18.15625","11.09375"
"1569311328510","112","-1.2529297","0.22363281","-0.15234375","-3.5625","-2.09375","27.5"
"1569311328600","113","-1.0498047","0.12402344","-0.057617188","-53.53125","14.4375","8.40625"
"1569311328689","114","-0.7919922","0.0068359375","9.765625E-4","-24.6875","-10.28125","-10.40625"
"1569311328842","115","-0.91308594","0.14257812","0.10058594","-40.96875","-12.28125","-13.125"
"1569311328900","116","-0.8359375","0.18945312","0.13671875","-23.9375","12.125","-19.25"
"1569311329020","117","-0.9296875","0.234375","0.22851562","17.875","7.375","-22.46875"
"1569311329109","118","-1.0654297","0.045898438","0.32910156","3.40625","-9.84375","-22.78125"
"1569311329200","119","-1.1083984","-0.036132812","-0.125","-17.59375","32.875","-7.9375"
"1569311329290","120","-0.8876953","-0.001953125","-0.31054688","21.90625","21.09375","0.65625"
"1569311329411","121","-0.8964844","-0.23242188","-0.29492188","45.6875","50.875","-7.9375"
"1569311329499","122","-0.93066406","-0.05078125","-0.25195312","22.8125","9.9375","-0.8125"
"1569311329593","123","-1.0361328","-0.0068359375","-0.29492188","7.375","1.625","2.5"
"1569311329711","124","-0.9511719","0.07324219","-0.23144531","-19.25","19.15625","4.0625"
"1569311329801","125","-0.96972656","-0.0546875","-0.25","-1.125","8.96875","7.96875"
"1569311329920","126","-1.0449219","-0.1015625","-0.29785156","10.65625","11.65625","11.15625"
"1569311330009","127","-1.0410156","-0.13964844","-0.23925781","53.375","-17.84375","8.03125"
"1569311330098","128","-0.9746094","-0.025390625","-0.22460938","83.125","-42.1875","6.40625"
"1569311330188","129","-0.97265625","-0.10058594","-0.12988281","112.34375","-45.5","13.15625"
"1569311330308","130","-1.0185547","-0.14746094","0.0029296875","64.8125","-51.59375","6.34375"
"1569311330398","131","-0.8544922","-0.18066406","0.048828125","36.4375","-43.40625","9.09375"
"1569311330490","132","-0.98046875","0.17089844","0.06640625","81.59375","-27.84375","-18.25"
"1569311330609","133","-0.8535156","0.27929688","0.09472656","43.1875","25.25","-11.0"
"1569311330700","134","-0.79785156","0.21777344","0.06933594","37.59375","50.59375","4.625"
"1569311330790","135","-0.8886719","0.20703125","0.0068359375","81.78125","-24.125","24.65625"
"1569311330910","136","-0.9814453","0.38867188","0.10058594","32.03125","41.125","27.9375"
"1569311331000","137","-0.97558594","0.28027344","-0.08203125","-9.59375","-18.09375","26.84375"
"1569311331090","138","-0.97265625","0.2578125","-0.06933594","65.59375","-28.34375","16.53125"
"1569311331242","139","-0.9970703","0.31933594","-0.123046875","53.8125","-8.875","-4.78125"
"1569311331303","140","-1.1328125","0.21289062","-0.032226562","-19.375","-4.59375","-4.03125"
"1569311331393","141","-0.77246094","0.26367188","-0.080078125","36.46875","-10.40625","-6.71875"
"1569311331513","142","-1.0537109","0.21875","0.030273438","13.90625","-21.3125","-9.53125"
"1569311331603","143","-0.8222656","0.3173828","0.026367188","6.28125","-15.03125","-4.46875"
"1569311331692","144","-0.9921875","0.18359375","0.09765625","-21.5","-5.3125","-5.5"
"1569311331813","145","-1.1201172","0.14941406","0.1640625","-29.875","-11.78125","-22.78125"
"1569311331904","146","-1.0341797","0.099609375","0.034179688","3.71875","6.875","-15.15625"
"1569311331990","147","-1.1035156","0.07128906","0.17480469","-9.46875","11.46875","-27.25"
"1569311332113","148","-1.0507812","0.001953125","0.13476562","-23.625","21.03125","-25.96875"
"1569311332200","149","-0.7636719","-0.11621094","0.11816406","21.03125","21.84375","-22.65625"
"1569311332296","150","-0.87597656","-0.10839844","0.29882812","22.6875","18.71875","-9.71875"
"1569311332414","151","-1.1679688","0.034179688","-0.024414062","16.59375","12.25","3.21875"
"1569311332503","152","-1.1259766","-0.115234375","-0.2421875","-7.34375","15.4375","-0.8125"
"1569311332593","153","-0.95214844","-0.030273438","-0.17089844","-37.625","-0.8125","-5.6875"
"1569311332712","154","-0.96972656","-0.034179688","-0.091796875","-10.40625","-10.625","-1.59375"
"1569311332804","155","-0.91015625","-0.078125","-0.0068359375","-30.09375","-15.40625","1.375"
"1569311332894","156","-0.91503906","-0.029296875","0.0234375","-30.59375","-10.34375","8.71875"
"1569311333108","157","-0.9404297","-0.028320312","0.09375","-43.03125","-0.5625","15.4375"
"1569311333109","158","-0.96777344","-0.068359375","0.08496094","-89.84375","-1.1875","7.5"
"1569311333220","159","-0.9560547","-0.22070312","0.12109375","-93.03125","-11.5625","1.15625"
"1569311333309","160","-1.3652344","-0.0107421875","-0.01171875","-76.5625","-37.25","18.1875"
"1569311333433","161","-1.2177734","0.5644531","0.08300781","-76.0","-7.78125","74.5625"
"1569311333493","162","-0.65722656","0.05078125","0.08886719","18.1875","7.75","12.125"
"1569311333648","163","-0.84765625","0.34179688","0.08886719","29.34375","13.53125","19.09375"
"1569311333704","164","-0.9921875","0.2685547","0.125","1.5625","22.4375","2.4375"
"1569311333790","165","-0.9345703","0.17480469","0.109375","9.09375","0.59375","-20.03125"
"1569311333909","166","-0.9375","0.2734375","0.08691406","34.21875","-2.34375","-20.875"
"1569311334000","167","-1.5273438","0.19433594","0.15722656","75.90625","-55.4375","-43.59375"
"1569311334090","168","-0.94628906","-0.22363281","-0.29101562","18.40625","-12.96875","-32.0625"
"1569311334210","169","-0.7626953","0.13769531","-0.037109375","4.625","-5.15625","4.8125"
"1569311334299","170","-0.84765625","0.109375","0.09082031","-39.6875","4.0625","6.9375"
"1569311334390","171","-0.90625","0.12597656","0.080078125","-59.28125","13.90625","2.65625"
"1569311334510","172","-0.9355469","0.17480469","0.17871094","-36.21875","27.4375","0.90625"
"1569311334599","173","-1.0800781","0.08886719","0.15527344","-30.78125","6.09375","19.625"
"1569311334690","174","-1.3798828","0.3095703","-0.099609375","-38.40625","-19.65625","47.28125"
"1569311334842","175","-1.0644531","0.40625","-0.2919922","-157.5","25.6875","12.25"
"1569311334900","176","-0.80566406","-0.060546875","0.07324219","-54.75","30.1875","-9.40625"
"1569311334993","177","-0.77734375","0.18652344","0.001953125","-84.65625","9.03125","-8.9375"
"1569311335080","178","-0.9042969","0.16308594","0.1484375","-52.375","6.5625","-2.46875"
"1569311335203","179","-0.9863281","0.20214844","0.15136719","-57.4375","-11.375","-9.40625"
"1569311335290","180","-1.34375","0.171875","0.4267578","0.53125","-20.71875","-3.8125"
"1569311335441","181","-1.1318359","0.0625","-0.19140625","-66.125","-27.84375","-1.1875"
"1569311335500","182","-0.87597656","0.20898438","0.06347656","20.375","4.125","5.46875"
"1569311335620","183","-0.7421875","0.19824219","-0.0146484375","-13.3125","37.03125","-0.8125"
"1569311335680","184","-0.90234375","0.20410156","0.2890625","41.65625","21.28125","-6.4375"
"1569311335844","185","-0.9238281","0.19238281","0.21484375","3.65625","9.125","-0.625"
"1569311335889","186","-1.1123047","0.14941406","0.20996094","-0.5","-1.40625","14.21875"
"1569311335980","187","-1.4306641","0.2998047","-0.22460938","-44.8125","-11.71875","22.3125"
"1569311336100","188","-0.9511719","0.26953125","-0.2685547","-55.375","17.3125","11.8125"
"1569311336190","189","-0.7402344","0.12597656","-0.03125","-69.40625","12.0625","-6.96875"
"1569311336310","190","-0.8046875","0.18847656","-0.022460938","-67.34375","0.53125","-7.9375"
"1569311336400","191","-0.89941406","0.19140625","0.14941406","-61.78125","3.03125","-9.40625"
"1569311336490","192","-0.96972656","0.23925781","0.13574219","-43.40625","-5.75","-9.90625"
"1569311336579","193","-1.5341797","0.19335938","0.37402344","11.03125","-33.71875","4.375"
"1569311336700","194","-1.0380859","-0.04296875","-0.13964844","-70.15625","-20.34375","-4.53125"
"1569311336789","195","-0.7011719","0.12011719","-0.026367188","-20.65625","13.09375","-7.78125"
"1569311336880","196","-0.75390625","0.1953125","0.03515625","-10.75","66.875","-3.75"
"1569311337000","197","-0.9082031","0.171875","0.15917969","0.59375","29.40625","-2.03125"
"1569311337089","198","-0.91015625","0.23242188","0.109375","-23.4375","19.09375","2.3125"
"1569311337179","199","-1.2636719","0.10058594","0.3095703","-8.0625","-7.71875","20.0625"
"1569311337300","200","-1.1826172","0.18164062","-0.34472656","-53.96875","-11.1875","21.65625"
"1569311337390","201","-1.0703125","0.07714844","-0.16015625","-57.03125","38.25","9.09375"
"1569311337542","202","-0.69433594","0.0078125","-0.03515625","-43.15625","9.75","-3.625"
"1569311337600","203","-0.81347656","0.064453125","0.043945312","-35.125","6.09375","-9.40625"
"1569311337723","204","-0.89746094","0.17871094","0.17480469","-39.9375","-1.96875","-14.0"
"1569311337810","205","-1.0761719","0.3486328","0.14648438","-6.78125","-5.375","-2.34375"
"1569311337900","206","-1.5634766","0.15136719","-0.046875","18.0","-33.84375","9.4375"
"1569311337990","207","-1.1298828","-0.12695312","-0.29296875","26.09375","20.6875","-11.78125"
"1569311338110","208","-0.6923828","9.765625E-4","-0.061523438","14.8125","5.59375","-9.65625"
"1569311338201","209","-0.7626953","0.07714844","0.015625","41.25","15.96875","1.09375"
"1569311338292","210","-0.9189453","0.123046875","0.140625","18.53125","12.3125","-4.59375"
"1569311338384","211","-0.98046875","0.26171875","0.056640625","6.5","5.1875","12.375"
"1569311338500","212","-1.4423828","0.39257812","0.0078125","23.0625","-34.5","33.375"
"1569311338590","213","-1.1777344","0.24804688","-0.49902344","-85.46875","-38.96875","10.71875"
"1569311338681","214","-0.8925781","-0.10839844","-0.017578125","-50.96875","49.65625","-6.90625"
"1569311338801","215","-0.66015625","0.026367188","-0.024414062","-32.125","-3.90625","-11.4375"
"1569311338959","216","-0.8730469","0.19238281","0.13476562","-18.09375","3.15625","-13.375"
"1569311338980","217","-1.0","0.24511719","0.14648438","-6.0","-2.40625","-3.5"
"1569311339100","218","-1.4296875","0.15625","0.36328125","56.875","-32.375","5.21875"
"1569311339189","219","-1.296875","-0.09375","-0.25878906","7.90625","-13.375","0.34375"
"1569311339279","220","-0.8466797","0.0078125","-0.10839844","52.40625","38.8125","-7.46875"
"1569311339399","221","-0.65722656","0.040039062","0.013671875","73.71875","2.0625","-6.53125"
"1569311339490","222","-0.8496094","0.14550781","0.080078125","48.25","15.65625","-5.6875"
"1569311339579","223","-0.9824219","0.24023438","0.103515625","39.0","1.3125","5.0"
"1569311339699","224","-1.1679688","0.1640625","0.2734375","28.84375","-16.4375","16.65625"
"1569311339820","225","-1.1826172","0.11035156","-0.22265625","-14.59375","-10.4375","28.4375"
"1569311339881","226","-1.0791016","0.056640625","-0.12207031","-59.65625","22.8125","12.25"
"1569311340000","227","-0.69628906","0.01953125","0.052734375","-3.8125","-15.625","-8.875"
"1569311340090","228","-0.796875","0.12988281","0.07714844","-16.3125","4.25","-13.3125"
"1569311340180","229","-0.8779297","0.18457031","0.15820312","-42.6875","4.3125","-14.65625"
"1569311340300","230","-1.0703125","0.23535156","0.20898438","13.84375","-1.0","-2.09375"
"1569311340392","231","-1.5722656","0.26660156","0.029296875","50.53125","-43.40625","9.8125"
"1569311340480","232","-1.1171875","-0.27929688","-0.3408203","40.8125","25.4375","-9.90625"
"1569311340599","233","-0.7080078","-0.001953125","-0.07910156","42.15625","11.34375","-7.875"
"1569311340690","234","-0.73339844","0.16210938","0.07421875","87.4375","10.59375","1.375"
"1569311340780","235","-0.9941406","0.033203125","0.16796875","32.09375","17.0","-0.3125"
"1569311340900","236","-0.94921875","0.2626953","0.07128906","14.375","2.3125","8.90625"
"1569311340990","237","-1.3095703","0.26367188","0.16210938","27.375","-30.46875","21.21875"
"1569311341081","238","-1.1210938","0.18066406","-0.2919922","-46.34375","-10.6875","17.5"
"1569311341200","239","-1.0283203","-0.0625","0.017578125","-42.875","21.09375","0.40625"
"1569311341290","240","-0.7685547","0.041015625","-0.08300781","-41.09375","-5.75","-7.78125"
"1569311341380","241","-0.8515625","0.12011719","-0.024414062","-10.15625","4.625","0.46875"
"1569311341531","242","-0.9501953","0.17285156","0.18652344","-8.3125","7.625","-8.0625"
