"# PDIoT walking data"
"# Start time: 20190924T085435"
"# Group: A"
"# Subject: Collecting"
"# Activity type: Walking (level ground)"
"# Sensor position: Upper Leg"
"# Side of body: Left"
"# Sensor mounting: Pocket"
"# Number of steps: 100"
"# Notes: 1, 100 steps"
""
"timestamp","seq","accel_x","accel_y","accel_z","gyro_x","gyro_y","gyro_z"
"1569311675580","0","-0.59472656","-0.24804688","0.39453125","-24.4375","22.09375","-5.09375"
"1569311675729","1","-0.7841797","-0.40039062","0.6015625","-19.78125","19.8125","-8.875"
"1569311675787","2","-1.0771484","-0.09765625","0.7841797","-20.71875","-10.6875","45.8125"
"1569311675880","3","-2.0","-1.1464844","0.4951172","-60.125","-34.5625","3.03125"
"1569311676003","4","-0.8183594","-0.296875","0.14453125","45.625","39.28125","-35.0"
"1569311676089","5","-0.8457031","-0.35351562","0.4267578","-20.21875","85.125","-22.53125"
"1569311676178","6","-0.8779297","-0.40234375","0.0126953125","-19.375","47.15625","-28.15625"
"1569311676298","7","-0.91796875","-0.33984375","0.16308594","11.40625","61.09375","-4.03125"
"1569311676389","8","-0.8408203","-0.41992188","0.19628906","12.875","56.0625","-21.0625"
"1569311676478","9","-0.9873047","-0.4169922","0.20605469","-6.59375","35.3125","-22.40625"
"1569311676600","10","-1.21875","-0.3984375","0.12402344","20.0625","24.15625","7.96875"
"1569311676719","11","-0.8125","-0.9550781","-0.15820312","37.40625","-102.96875","47.53125"
"1569311676778","12","-1.0244141","-0.41210938","0.015625","159.46875","-91.4375","4.5"
"1569311676899","13","-0.6113281","-0.24609375","0.2265625","4.0","-129.21875","5.78125"
"1569311676988","14","-0.5605469","-0.2939453","0.3076172","-36.34375","-41.53125","-15.28125"
"1569311677079","15","-0.6669922","-0.11328125","0.6386719","-25.71875","55.96875","-7.875"
"1569311677238","16","-1.0625","-0.34960938","0.9091797","-19.53125","-48.59375","28.96875"
"1569311677288","17","-2.0","-0.9580078","0.5888672","-29.75","-25.28125","25.6875"
"1569311677379","18","-0.78808594","-0.3486328","0.051757812","62.0","44.0625","-37.125"
"1569311677502","19","-0.93847656","-0.3876953","0.36523438","-13.25","90.0","-3.8125"
"1569311677592","20","-0.9033203","-0.34179688","0.10058594","-49.28125","64.8125","-19.0"
"1569311677715","21","-0.8535156","-0.30859375","0.22558594","-17.78125","30.75","-13.625"
"1569311677803","22","-0.86816406","-0.3857422","0.22167969","-2.34375","32.15625","-25.28125"
"1569311677889","23","-1.0791016","-0.49414062","0.25390625","-43.28125","18.65625","-1.84375"
"1569311678007","24","-1.3955078","-0.57421875","0.040039062","-14.53125","-46.46875","48.1875"
"1569311678191","25","-0.89160156","-0.77734375","0.20019531","75.96875","-106.40625","19.9375"
"1569311678191","26","-0.85058594","-0.3515625","0.34277344","18.40625","-112.3125","9.5625"
"1569311678279","27","-0.51660156","-0.35742188","0.265625","-13.875","-82.46875","19.15625"
"1569311678399","28","-0.4638672","-0.21972656","0.42382812","-34.4375","39.71875","-16.75"
"1569311678519","29","-1.0908203","-0.51660156","0.7050781","-21.375","29.28125","-2.34375"
"1569311678582","30","-0.9277344","-0.17285156","0.7734375","-4.53125","-21.6875","21.21875"
"1569311678670","31","-0.56640625","-0.5888672","0.53125","0.09375","32.53125","-23.21875"
"1569311678788","32","-0.8613281","-0.38085938","0.10839844","-13.8125","79.9375","-40.375"
"1569311678879","33","-0.7109375","-0.39160156","0.22851562","-12.59375","60.90625","-23.03125"
"1569311678969","34","-0.8691406","-0.2919922","0.24609375","-7.78125","45.40625","-15.6875"
"1569311679089","35","-0.8544922","-0.390625","0.36621094","-16.25","54.25","-20.40625"
"1569311679240","36","-1.0019531","-0.3359375","0.14648438","-28.28125","15.71875","-14.90625"
"1569311679299","37","-1.2412109","-0.31347656","0.0625","25.9375","23.375","11.71875"
"1569311679389","38","-0.91308594","-0.9736328","-0.115234375","27.5","-115.875","46.0"
"1569311679479","39","-0.97265625","-0.2919922","0.020507812","137.125","-103.15625","10.1875"
"1569311679569","40","-0.42773438","-0.18554688","-0.09765625","12.5","-104.4375","7.8125"
"1569311679782","41","-0.53027344","-0.3359375","0.40722656","-48.65625","-18.21875","1.9375"
"1569311679783","42","-0.7109375","-0.16015625","0.64160156","-45.5625","53.6875","-6.25"
"1569311679868","43","-1.0869141","-0.23144531","0.9658203","-0.875","-66.125","34.28125"
"1569311680057","44","-2.0","-1.1962891","0.18066406","17.0","32.28125","26.84375"
"1569311680081","45","-0.6972656","-0.4296875","-0.24023438","57.46875","101.78125","-38.71875"
"1569311680169","46","-0.6875","-0.4951172","0.17285156","-3.0","109.0625","12.1875"
"1569311680288","47","-0.78808594","-0.36816406","0.15722656","-18.9375","78.65625","-14.71875"
"1569311680379","48","-0.8251953","-0.32128906","0.18164062","-0.375","51.9375","-8.8125"
"1569311680469","49","-0.9277344","-0.2919922","0.0107421875","-9.65625","36.4375","-22.65625"
"1569311680589","50","-1.0166016","-0.52246094","0.32421875","-6.84375","29.34375","-1.3125"
"1569311680679","51","-1.5078125","-0.5966797","-0.07519531","-19.3125","-52.6875","54.625"
"1569311680798","52","-0.9873047","-0.7548828","0.25390625","47.09375","-98.15625","14.375"
"1569311680888","53","-0.8378906","-0.34765625","0.11621094","26.96875","-140.34375","17.75"
"1569311680979","54","-0.6347656","-0.32617188","0.4951172","-29.8125","-81.375","19.8125"
"1569311681069","55","-0.47460938","-0.16699219","0.4111328","-49.9375","30.5","-7.40625"
"1569311681188","56","-1.1132812","-0.5878906","0.7832031","-35.21875","3.15625","-2.40625"
"1569311681278","57","-1.0185547","-0.43359375","0.7871094","2.5","-19.5","33.5625"
"1569311681368","58","-0.6767578","-0.54003906","0.6152344","-10.09375","25.375","-23.8125"
"1569311681488","59","-0.9033203","-0.40234375","0.20214844","-16.625","83.84375","-35.125"
"1569311681579","60","-0.66796875","-0.3720703","0.18554688","-18.3125","49.0625","-27.46875"
"1569311681700","61","-0.859375","-0.26757812","0.21875","-22.15625","48.09375","-6.125"
"1569311681788","62","-0.82128906","-0.40527344","0.28320312","-10.5","49.65625","-20.46875"
"1569311681879","63","-1.0292969","-0.3544922","0.21484375","-17.40625","23.65625","-20.21875"
"1569311682001","64","-1.1113281","-0.47265625","0.2578125","17.125","38.0625","-1.34375"
"1569311682089","65","-0.98046875","-0.8183594","-0.27148438","7.625","-104.1875","57.53125"
"1569311682208","66","-1.15625","-0.43164062","0.14453125","128.46875","-106.40625","5.28125"
"1569311682269","67","-0.67285156","-0.2529297","0.22753906","-18.25","-129.71875","24.21875"
"1569311682389","68","-0.3623047","-0.3720703","0.24804688","-37.4375","-67.09375","14.75"
"1569311682478","69","-0.5810547","-0.12207031","0.5","-41.28125","56.4375","-4.09375"
"1569311682568","70","-1.0322266","-0.49902344","0.82714844","-38.78125","-34.5625","7.1875"
"1569311682750","71","-1.0839844","-0.5986328","0.67285156","-44.75","-30.65625","35.9375"
"1569311682778","72","-0.6269531","-0.36816406","0.35839844","24.40625","12.5","-32.84375"
"1569311682869","73","-0.9707031","-0.30859375","0.2626953","-47.5","80.3125","-11.3125"
"1569311682994","74","-0.81640625","-0.37109375","0.049804688","-27.84375","47.59375","-19.3125"
"1569311683077","75","-0.90722656","-0.31054688","0.26367188","-17.09375","47.09375","-6.0"
"1569311683230","76","-0.7939453","-0.47460938","0.21289062","3.78125","56.0625","-21.0"
"1569311683289","77","-1.0283203","-0.29003906","0.103515625","-30.34375","8.15625","-12.78125"
"1569311683441","78","-1.5478516","-0.16992188","-0.05859375","-5.3125","-22.34375","31.65625"
"1569311683468","79","-0.8496094","-0.5683594","0.038085938","27.625","-121.28125","22.25"
"1569311683589","80","-0.9501953","-0.45214844","0.05859375","70.3125","-53.0","23.0625"
"1569311683680","81","-0.63671875","-0.296875","0.58984375","-41.9375","-116.90625","28.78125"
"1569311683769","82","-0.5722656","-0.2998047","0.30566406","-47.8125","1.75","14.5"
"1569311683888","83","-0.7324219","-0.2783203","0.5644531","-46.15625","29.59375","-14.1875"
"1569311683979","84","-1.0126953","-0.08203125","0.8964844","-18.875","-36.15625","63.875"
"1569311684068","85","-0.0625","-0.6152344","0.46777344","-13.625","-9.84375","41.4375"
"1569311684188","86","-1.0966797","-0.58984375","-0.1796875","10.3125","98.0625","-46.875"
"1569311684278","87","-0.8486328","-0.39160156","0.26171875","-42.25","85.0625","6.5"
"1569311684398","88","-0.8408203","-0.28515625","0.22558594","-54.28125","42.53125","-1.96875"
"1569311684489","89","-0.8486328","-0.33496094","0.17578125","-32.5","30.8125","-5.3125"
"1569311684578","90","-0.9482422","-0.33007812","0.20605469","-14.59375","49.46875","-21.5"
"1569311684668","91","-0.93847656","-0.5888672","0.27929688","-34.5625","18.125","2.0625"
"1569311684789","92","-1.5380859","-0.11621094","-0.13378906","-7.15625","-33.78125","34.96875"
"1569311684879","93","-0.8417969","-0.6933594","0.2529297","45.8125","-125.0625","12.5"
"1569311684969","94","-0.98828125","-0.421875","0.049804688","36.96875","-88.09375","17.9375"
"1569311685088","95","-0.8203125","-0.043945312","0.89160156","-66.46875","-124.96875","24.65625"
"1569311685178","96","-0.57910156","-0.28710938","0.3623047","-49.9375","9.25","15.0"
"1569311685269","97","-0.77441406","-0.35351562","0.5888672","-28.6875","33.8125","-10.34375"
"1569311685388","98","-1.1494141","0.095703125","0.9042969","-32.0625","-33.28125","50.65625"
"1569311685479","99","-1.9335938","-0.9042969","0.2890625","-57.6875","16.46875","30.75"
"1569311685569","100","-0.68652344","-0.33496094","-0.072265625","26.90625","39.78125","-40.1875"
"1569311685689","101","-0.8730469","-0.49804688","0.30078125","-22.65625","88.1875","20.625"
"1569311685779","102","-0.8613281","-0.37109375","0.05078125","-20.15625","55.21875","-13.1875"
"1569311685869","103","-0.9199219","-0.3251953","0.28027344","-21.5625","38.0625","-6.125"
"1569311685989","104","-0.85839844","-0.3984375","0.2265625","8.96875","55.96875","-15.75"
"1569311686079","105","-0.97753906","-0.3623047","0.06933594","-40.0625","12.3125","-11.0625"
"1569311686169","106","-1.0683594","-0.36621094","0.20117188","27.5625","31.25","-10.28125"
"1569311686288","107","-1.1425781","-0.8564453","-0.043945312","-4.15625","-91.3125","49.25"
"1569311686382","108","-1.0205078","-0.41015625","0.11035156","105.5","-89.6875","3.65625"
"1569311686473","109","-0.8154297","-0.31152344","0.36328125","-0.0625","-109.875","12.125"
"1569311686586","110","-0.6425781","-0.34960938","0.41308594","-52.25","-58.125","33.5625"
"1569311686677","111","-0.6689453","-0.24316406","0.45410156","-47.4375","24.03125","24.71875"
"1569311686766","112","-0.82714844","-0.43652344","0.6582031","-59.53125","-3.125","2.65625"
"1569311686886","113","-0.94140625","0.041015625","0.62597656","-32.375","-17.90625","59.3125"
"1569311686979","114","-1.7988281","-1.0380859","0.22460938","-57.5625","29.09375","43.75"
"1569311687067","115","-0.82128906","-0.27148438","-0.203125","-7.46875","19.6875","-16.8125"
"1569311687189","116","-0.7685547","-0.5722656","0.27246094","-68.9375","58.59375","28.0"
"1569311687279","117","-0.9394531","-0.3798828","0.13867188","-45.25","29.21875","5.21875"
"1569311687430","118","-0.8857422","-0.46777344","0.1640625","-33.71875","12.75","5.71875"
"1569311687489","119","-0.87109375","-0.43945312","0.16210938","-3.5","32.9375","0.21875"
"1569311687578","120","-0.91796875","-0.43066406","0.060546875","-13.0625","14.28125","-9.53125"
"1569311687668","121","-0.8642578","-0.5673828","0.22558594","0.15625","30.25","-5.75"
"1569311687789","122","-1.0644531","-0.3955078","0.053710938","11.03125","24.65625","-16.0"
"1569311687879","123","-1.0146484","-0.8125","0.08203125","-0.5","-23.75","21.15625"
"1569311687968","124","-0.8623047","-0.37402344","0.036132812","20.25","-57.03125","-9.0"
"1569311688103","125","-0.8457031","-0.56152344","0.123046875","20.25","-29.5","2.78125"
"1569311688178","126","-0.81640625","-0.52246094","0.15039062","-11.5625","-26.625","4.5625"
"1569311688298","127","-0.8066406","-0.5419922","0.19042969","-20.15625","-3.25","-6.53125"
"1569311688417","128","-0.87597656","-0.5263672","0.25976562","-11.375","-17.15625","-9.0"
"1569311688536","129","-0.7939453","-0.48046875","0.26757812","-16.625","-20.34375","1.5625"
"1569311688566","130","-0.80078125","-0.42773438","0.14453125","-26.5625","-1.46875","17.25"
"1569311688719","131","-0.7285156","-0.5332031","0.018554688","-43.34375","17.0","16.40625"
"1569311688776","132","-0.8798828","-0.61621094","0.14941406","-53.90625","-5.4375","6.28125"
"1569311688867","133","-0.9042969","-0.39160156","0.083984375","-48.1875","-15.46875","8.78125"
"1569311688987","134","-0.90625","-0.48242188","0.13085938","-52.375","-31.8125","11.59375"
"1569311689140","135","-0.85058594","-0.48046875","0.13476562","-31.8125","-21.5","11.875"
"1569311689167","136","-0.8310547","-0.5107422","0.14648438","-12.21875","-12.15625","1.09375"
"1569311689287","137","-0.9042969","-0.47851562","0.11035156","-8.0","-7.28125","-2.75"
"1569311689408","138","-0.89453125","-0.42382812","0.12792969","-23.09375","-14.0625","-7.46875"
"1569311689468","139","-0.8886719","-0.4873047","0.19628906","-26.375","-14.78125","-2.875"
"1569311689589","140","-0.9003906","-0.53027344","0.1953125","-31.375","-28.03125","0.53125"
"1569311689678","141","-0.82421875","-0.53515625","0.16210938","-26.375","-24.84375","0.59375"
"1569311689769","142","-0.85546875","-0.546875","0.18164062","-26.8125","-18.375","-2.21875"
"1569311689889","143","-0.8808594","-0.57128906","0.20214844","-23.5625","-7.28125","-3.0625"
"1569311689981","144","-0.84765625","-0.53125","0.16699219","-5.5","-6.53125","-0.5"
"1569311690070","145","-0.82128906","-0.5546875","0.18554688","5.53125","-0.5","-1.90625"
"1569311690192","146","-0.82128906","-0.5595703","0.19726562","7.0","3.9375","-3.875"
"1569311690283","147","-0.82910156","-0.5439453","0.18066406","26.28125","15.96875","-3.96875"
"1569311690381","148","-0.87890625","-0.5722656","0.2265625","36.78125","17.4375","-6.0625"
"1569311690493","149","-0.8144531","-0.5644531","0.20214844","56.8125","21.78125","-7.78125"
"1569311690578","150","-0.8359375","-0.5566406","0.20996094","60.53125","28.5","-10.4375"
"1569311690698","151","-0.84277344","-0.5","0.25","58.625","32.6875","-9.96875"
"1569311690792","152","-0.8027344","-0.4970703","0.36523438","34.96875","24.21875","-5.8125"
"1569311690878","153","-0.8339844","-0.47460938","0.23828125","48.5","36.4375","-6.90625"
"1569311690971","154","-0.9111328","-0.4501953","0.2783203","7.8125","24.28125","1.8125"
"1569311691089","155","-0.82714844","-0.5292969","0.140625","12.3125","14.625","4.0"
"1569311691179","156","-0.88183594","-0.56347656","0.10449219","12.9375","7.96875","0.28125"
"1569311691269","157","-0.8515625","-0.5410156","0.16796875","32.625","13.28125","-0.125"
"1569311691388","158","-0.8857422","-0.453125","0.125","39.71875","15.0","-3.96875"
"1569311691479","159","-0.89746094","-0.40234375","0.18945312","14.15625","8.40625","0.90625"
"1569311691571","160","-0.8964844","-0.4111328","0.17773438","-8.125","-1.3125","5.1875"
"1569311691690","161","-0.8955078","-0.43554688","0.1875","-21.8125","-7.21875","7.6875"
"1569311691779","162","-0.89160156","-0.39257812","0.18554688","-31.09375","-8.375","7.90625"
"1569311691871","163","-0.89746094","-0.45214844","0.17285156","-37.0","-13.75","8.28125"
"1569311691989","164","-0.8935547","-0.46972656","0.13769531","-26.9375","-11.71875","8.03125"
"1569311692079","165","-0.8876953","-0.48339844","0.13183594","-12.84375","-3.3125","3.84375"
"1569311692169","166","-0.8925781","-0.4560547","0.14550781","-5.09375","-1.59375","0.40625"
"1569311692292","167","-0.88964844","-0.45214844","0.123046875","0.40625","-0.1875","0.84375"
"1569311692380","168","-0.88671875","-0.44628906","0.14257812","3.59375","1.3125","-1.125"
"1569311692468","169","-0.90625","-0.4091797","0.15039062","3.03125","1.9375","-1.1875"
"1569311692587","170","-0.89746094","-0.44628906","0.15136719","-1.25","-1.25","0.21875"
"1569311692677","171","-0.8847656","-0.46679688","0.13476562","0.96875","0.0","-0.3125"
"1569311692772","172","-0.890625","-0.49023438","0.13671875","9.5","2.78125","-3.3125"
"1569311692891","173","-0.8798828","-0.484375","0.13867188","19.46875","4.9375","-5.625"
"1569311692979","174","-0.89941406","-0.4560547","0.1640625","23.375","8.28125","-6.65625"
"1569311693071","175","-0.8925781","-0.4375","0.18066406","17.5625","6.46875","-5.09375"
"1569311693192","176","-0.8876953","-0.4560547","0.18359375","13.28125","3.71875","-3.5"
"1569311693280","177","-0.87890625","-0.4501953","0.1796875","6.8125","1.5","-3.0"
"1569311693371","178","-0.8623047","-0.47070312","0.14160156","7.25","1.28125","-2.21875"
"1569311693493","179","-0.88671875","-0.453125","0.16992188","7.25","0.84375","-1.96875"
"1569311693582","180","-0.87597656","-0.4248047","0.21972656","0.53125","-1.34375","-1.46875"
"1569311693671","181","-0.88378906","-0.43652344","0.21972656","-11.25","-4.46875","2.0"
"1569311693827","182","-0.86816406","-0.46191406","0.20019531","-12.78125","-5.5","3.84375"
"1569311693879","183","-0.87597656","-0.4736328","0.16992188","-12.15625","-4.40625","3.34375"
"1569311693973","184","-0.87109375","-0.48339844","0.1640625","-7.34375","-2.28125","2.5625"
"1569311694089","185","-0.8642578","-0.49609375","0.18457031","0.96875","1.9375","-0.6875"
"1569311694181","186","-0.8876953","-0.4580078","0.18066406","1.28125","1.8125","-0.4375"
"1569311694269","187","-0.89453125","-0.44140625","0.18554688","-5.8125","-1.46875","2.0"
"1569311694364","188","-0.8730469","-0.48046875","0.16210938","-2.09375","-1.40625","2.0625"
"1569311694481","189","-0.8876953","-0.47460938","0.14648438","0.09375","0.34375","0.03125"
"1569311694569","190","-0.88183594","-0.4716797","0.16699219","-1.25","-1.53125","0.71875"
"1569311694664","191","-0.85253906","-0.48632812","0.17578125","-0.6875","-1.53125","0.90625"
"1569311694780","192","-0.8808594","-0.4736328","0.1875","4.25","2.1875","0.28125"
"1569311694870","193","-0.890625","-0.45507812","0.17675781","2.71875","0.46875","0.46875"
"1569311694961","194","-0.87109375","-0.46289062","0.1640625","2.59375","1.8125","0.46875"
"1569311695119","195","-0.8886719","-0.4423828","0.1796875","-0.875","-0.375","0.28125"
"1569311695171","196","-0.8828125","-0.4658203","0.16992188","-6.1875","-1.96875","2.59375"
"1569311695289","197","-0.8828125","-0.4638672","0.17089844","-5.5","-2.15625","2.25"
"1569311695384","198","-0.88183594","-0.4453125","0.17578125","-8.375","-3.1875","1.6875"
"1569311695471","199","-0.87890625","-0.46289062","0.17089844","-6.53125","-2.59375","1.875"
"1569311695559","200","-0.8925781","-0.44335938","0.18457031","-7.46875","-2.34375","1.6875"
"1569311695680","201","-0.8808594","-0.45898438","0.16601562","-6.84375","-1.78125","2.1875"
"1569311695772","202","-0.87402344","-0.4736328","0.17480469","-3.5625","-0.875","0.90625"
"1569311695858","203","-0.8779297","-0.4658203","0.171875","-0.75","1.9375","-0.1875"
"1569311695980","204","-0.8984375","-0.43066406","0.17089844","-2.9375","1.4375","-0.1875"
"1569311696070","205","-0.890625","-0.4501953","0.15625","-3.6875","0.28125","1.15625"
"1569311696160","206","-0.8857422","-0.47070312","0.1484375","-0.9375","0.78125","0.84375"
"1569311696281","207","-0.8808594","-0.4560547","0.13964844","3.09375","2.1875","0.28125"
"1569311696401","208","-0.90234375","-0.4560547","0.15527344","3.9375","1.8125","-0.1875"
"1569311696460","209","-0.8847656","-0.4638672","0.13476562","4.875","1.03125","-0.375"
"1569311696580","210","-0.8964844","-0.45507812","0.14941406","6.28125","1.625","-1.25"
"1569311696672","211","-0.88671875","-0.453125","0.16210938","4.75","1.625","-1.125"
"1569311696760","212","-0.8876953","-0.4482422","0.16210938","4.1875","0.96875","-0.625"
"1569311696883","213","-0.8828125","-0.4658203","0.16210938","3.40625","1.21875","-0.875"
"1569311696970","214","-0.8876953","-0.46191406","0.16796875","3.40625","1.28125","-0.75"
"1569311697062","215","-0.8857422","-0.45214844","0.15039062","3.15625","1.3125","-0.75"
"1569311697182","216","-0.8886719","-0.45117188","0.16503906","1.8125","1.15625","-0.0625"
"1569311697269","217","-0.89941406","-0.45996094","0.15527344","1.625","1.09375","-0.0625"
"1569311697363","218","-0.88671875","-0.44921875","0.16015625","0.84375","0.46875","0.09375"
"1569311697517","219","-0.8886719","-0.45703125","0.15820312","-0.5","0.40625","-0.125"
"1569311697569","220","-0.88378906","-0.45898438","0.15722656","-0.75","-0.875","0.09375"
"1569311697661","221","-0.8701172","-0.45996094","0.16308594","-0.4375","-0.875","-0.1875"
"1569311697779","222","-0.8876953","-0.45898438","0.16113281","-0.0625","-0.25","0.03125"
"1569311697872","223","-0.8847656","-0.4560547","0.15429688","-0.5625","-0.25","0.15625"
"1569311697959","224","-0.890625","-0.4580078","0.16015625","0.34375","0.03125","-0.3125"
"1569311698084","225","-0.87890625","-0.46191406","0.17382812","1.28125","0.65625","-0.125"
"1569311698170","226","-0.88183594","-0.4638672","0.171875","0.40625","0.34375","-0.25"
"1569311698261","227","-0.8847656","-0.453125","0.16210938","0.40625","0.28125","-0.125"
"1569311698380","228","-0.87890625","-0.46289062","0.16015625","-0.0625","-0.375","0.15625"
"1569311698469","229","-0.8808594","-0.45996094","0.16015625","-1.0","-0.5625","0.09375"
"1569311698561","230","-0.8857422","-0.46289062","0.16601562","-0.6875","-0.1875","0.09375"
"1569311698680","231","-0.8808594","-0.4638672","0.15820312","0.59375","0.03125","-0.0625"
"1569311698803","232","-0.8847656","-0.45898438","0.15917969","1.15625","0.65625","-0.4375"
"1569311698862","233","-0.8808594","-0.45410156","0.16699219","0.71875","0.40625","-0.125"
"1569311698980","234","-0.8828125","-0.4560547","0.17480469","0.03125","0.34375","0.09375"
"1569311699068","235","-0.8828125","-0.46972656","0.16601562","0.28125","0.28125","0.21875"
"1569311699160","236","-0.8876953","-0.4580078","0.17089844","0.71875","0.21875","0.03125"
"1569311699283","237","-0.8925781","-0.4560547","0.14941406","-0.0625","-0.0625","0.21875"
"1569311699371","238","-0.8886719","-0.45410156","0.17382812","-1.0","-0.3125","0.46875"
"1569311699460","239","-0.8857422","-0.45214844","0.16699219","-2.21875","-1.1875","1.09375"
"1569311699582","240","-0.8925781","-0.45117188","0.16796875","-5.25","-2.6875","2.0625"
"1569311699670","241","-0.89160156","-0.4638672","0.1640625","-1.40625","-2.28125","1.9375"
"1569311699760","242","-0.875","-0.4609375","0.17089844","2.25","0.15625","0.03125"
"1569311699880","243","-0.8857422","-0.45507812","0.16796875","5.53125","1.625","-1.46875"
"1569311699970","244","-0.8857422","-0.44335938","0.17578125","5.34375","2.25","-1.59375"
"1569311700058","245","-0.89453125","-0.44628906","0.18261719","1.9375","0.59375","-0.25"
"1569311700246","246","-0.8828125","-0.4501953","0.16894531","0.46875","-0.0625","-0.3125"
"1569311700269","247","-0.87597656","-0.46777344","0.16894531","0.90625","0.34375","-0.6875"
"1569311700359","248","-0.8876953","-0.4423828","0.18652344","2.3125","1.375","-1.71875"
"1569311700480","249","-0.8828125","-0.4560547","0.16210938","-1.71875","-1.53125","0.53125"
"1569311700574","250","-0.8847656","-0.47460938","0.16796875","-4.65625","-3.5","1.9375"
"1569311700658","251","-0.8798828","-0.4658203","0.1796875","-5.3125","-2.8125","1.09375"
"1569311700818","252","-0.8779297","-0.46484375","0.1796875","-4.03125","-1.78125","0.90625"
"1569311700869","253","-0.87109375","-0.4716797","0.16699219","0.40625","-0.0625","0.21875"
"1569311700959","254","-0.8886719","-0.46777344","0.18359375","1.5625","-0.25","0.0"
"1569311701081","255","-0.88378906","-0.44433594","0.18261719","-1.78125","-1.125","0.34375"
"1569311701171","256","-0.8876953","-0.45214844","0.16699219","-0.6875","-2.46875","1.375"
"1569311701260","257","-0.8925781","-0.43652344","0.17578125","-1.125","-3.1875","1.375"
"1569311701380","258","-0.8720703","-0.46972656","0.19433594","-2.53125","-2.46875","1.21875"
"1569311701502","259","-0.8808594","-0.4736328","0.19335938","0.96875","-1.34375","-0.5625"
"1569311701562","260","-0.8847656","-0.44921875","0.20898438","1.4375","0.71875","-1.0"
"1569311701680","261","-0.87597656","-0.44335938","0.20605469","0.03125","-0.5625","0.59375"
"1569311701773","262","-0.87597656","-0.44628906","0.18652344","-0.875","-0.625","0.03125"
"1569311701862","263","-0.8730469","-0.4560547","0.18359375","-0.875","-0.3125","0.71875"
"1569311702019","264","-0.8847656","-0.45410156","0.18847656","-0.25","0.28125","-0.3125"
"1569311702069","265","-0.875","-0.44335938","0.18847656","-2.625","-0.75","0.53125"
"1569311702162","266","-0.8652344","-0.46191406","0.18652344","-3.25","0.0","0.09375"
"1569311702280","267","-0.8769531","-0.4638672","0.18457031","0.34375","1.6875","-1.0"
"1569311702371","268","-0.87597656","-0.47558594","0.19824219","7.25","4.0","-2.625"
"1569311702459","269","-0.8798828","-0.44921875","0.1875","6.28125","3.90625","-2.03125"
"1569311702578","270","-0.8925781","-0.43945312","0.19140625","0.90625","0.28125","0.28125"
"1569311702670","271","-0.8828125","-0.45703125","0.17871094","-5.5","-2.59375","2.71875"
"1569311702793","272","-0.87109375","-0.46484375","0.1796875","-5.875","-2.40625","2.5"
"1569311702882","273","-0.88671875","-0.46777344","0.19335938","-4.34375","-0.875","1.75"
"1569311702969","274","-0.88671875","-0.4580078","0.19628906","-3.25","0.09375","0.0"
"1569311703088","275","-0.88183594","-0.45117188","0.18359375","-0.0625","0.28125","1.03125"
"1569311703181","276","-0.8857422","-0.45703125","0.17773438","-2.03125","-0.25","0.53125"
"1569311703269","277","-0.8886719","-0.4423828","0.19042969","-1.71875","1.09375","0.96875"
"1569311703361","278","-0.8857422","-0.4580078","0.17480469","-2.46875","-0.5625","1.375"
"1569311703480","279","-0.8857422","-0.4560547","0.18066406","1.28125","1.5625","-1.3125"
"1569311703571","280","-0.8984375","-0.43359375","0.18554688","0.46875","0.65625","0.34375"
"1569311703661","281","-0.8798828","-0.45117188","0.15332031","-2.75","-1.25","0.65625"
"1569311703782","282","-0.89746094","-0.46484375","0.1640625","-3.1875","-1.71875","1.375"
"1569311703870","283","-0.88183594","-0.4580078","0.17773438","-2.28125","-1.84375","1.28125"
"1569311703958","284","-0.8886719","-0.43359375","0.17285156","-3.25","-2.53125","1.09375"
"1569311704081","285","-0.88671875","-0.42285156","0.19824219","-9.0625","-3.0","1.5625"
"1569311704173","286","-0.8847656","-0.43847656","0.18066406","-13.3125","-4.90625","2.5625"
"1569311704261","287","-0.87597656","-0.47851562","0.16992188","-10.625","-4.09375","2.375"
"1569311704382","288","-0.8847656","-0.46972656","0.16503906","-5.15625","-1.40625","0.84375"
"1569311704470","289","-0.8886719","-0.45703125","0.17382812","-2.9375","-0.1875","0.21875"
"1569311704589","290","-0.88671875","-0.44921875","0.16796875","-3.5625","-1.59375","0.40625"
"1569311704680","291","-0.8779297","-0.4638672","0.15039062","1.21875","1.6875","-0.25"
"1569311704769","292","-0.9003906","-0.45214844","0.1484375","2.84375","0.84375","-1.71875"
"1569311704865","293","-0.88378906","-0.45898438","0.16503906","-0.4375","-1.46875","-2.09375"
"1569311704979","294","-0.87402344","-0.48242188","0.16894531","8.28125","2.0","-2.15625"
"1569311705074","295","-0.8828125","-0.45996094","0.19921875","5.0625","2.78125","-4.21875"
"1569311705194","296","-0.8828125","-0.46484375","0.18066406","4.3125","1.6875","-1.1875"
"1569311705281","297","-0.8847656","-0.4716797","0.171875","2.125","0.21875","-1.0625"
"1569311705370","298","-0.87402344","-0.47460938","0.16113281","1.15625","0.90625","-0.4375"
"1569311705458","299","-0.8847656","-0.44921875","0.17480469","0.46875","-0.1875","-0.375"
"1569311705581","300","-0.8808594","-0.45507812","0.16210938","-1.40625","-0.375","0.53125"
"1569311705669","301","-0.88183594","-0.47851562","0.1796875","-2.09375","-0.3125","0.59375"
"1569311705762","302","-0.88183594","-0.46289062","0.17871094","-0.75","-0.4375","0.65625"
"1569311705878","303","-0.87597656","-0.453125","0.17773438","-0.75","-0.375","0.15625"
"1569311705970","304","-0.87402344","-0.46484375","0.16992188","-4.28125","-0.875","1.28125"
"1569311706064","305","-0.87890625","-0.48828125","0.16210938","0.90625","0.09375","0.78125"
"1569311706183","306","-0.88183594","-0.44335938","0.16601562","1.9375","0.96875","-0.3125"
"1569311706269","307","-0.8935547","-0.44726562","0.17578125","-0.8125","0.21875","0.53125"
"1569311706360","308","-0.8925781","-0.47265625","0.16992188","-5.875","-3.125","1.5"
"1569311706478","309","-0.8847656","-0.47460938","0.15917969","-7.40625","-3.625","1.28125"
"1569311706631","310","-0.8798828","-0.484375","0.13476562","-8.0","-4.40625","-0.75"
"1569311706658","311","-0.8691406","-0.4892578","0.13867188","-4.28125","-6.59375","-2.03125"
"1569311706778","312","-0.8701172","-0.48828125","0.17675781","2.59375","-6.25","-3.0625"
"1569311706868","313","-0.8457031","-0.5439453","0.17675781","5.34375","-6.375","-7.53125"
"1569311706958","314","-0.8857422","-0.47753906","0.19433594","16.65625","-1.1875","-12.09375"
"1569311707078","315","-0.8876953","-0.44335938","0.19628906","15.65625","-2.28125","-15.15625"
"1569311707168","316","-0.87109375","-0.4580078","0.23730469","17.25","6.34375","-18.21875"
"1569311707259","317","-0.8457031","-0.4345703","0.296875","7.25","8.21875","-16.5"
"1569311707378","318","-0.82421875","-0.5390625","0.24804688","3.84375","6.9375","-8.5625"
"1569311707468","319","-0.8173828","-0.5185547","0.28515625","3.15625","0.96875","-8.8125"
"1569311707558","320","-0.8017578","-0.53222656","0.28125","1.9375","2.4375","-3.0"
"1569311707680","321","-0.78222656","-0.54296875","0.25195312","-2.28125","-2.34375","1.09375"
"1569311707768","322","-0.80566406","-0.5488281","0.2578125","-5.5","-2.40625","4.6875"
"1569311707921","323","-0.7949219","-0.54589844","0.25683594","-6.375","-2.15625","5.0"
"1569311707980","324","-0.81152344","-0.55371094","0.23339844","-5.9375","-0.375","5.78125"
"1569311708068","325","-0.82910156","-0.53027344","0.24121094","-6.96875","-0.5625","7.4375"
"1569311708159","326","-0.82421875","-0.57421875","0.20117188","-4.28125","-1.90625","8.28125"
"1569311708278","327","-0.8808594","-0.5332031","0.2265625","-4.28125","-1.25","3.34375"
"1569311708367","328","-0.8564453","-0.53515625","0.17675781","-3.6875","-0.25","0.28125"
"1569311708457","329","-0.82714844","-0.5751953","0.18261719","6.9375","-0.1875","1.75"
"1569311708578","330","-0.81347656","-0.5683594","0.22070312","18.1875","-0.1875","1.15625"
"1569311708668","331","-0.8300781","-0.49414062","0.2548828","16.71875","3.78125","1.875"
"1569311708762","332","-0.82128906","-0.5439453","0.2841797","7.1875","4.25","1.09375"
"1569311708881","333","-0.81640625","-0.5332031","0.2548828","21.46875","9.625","-1.125"
"1569311708968","334","-0.8457031","-0.46777344","0.29589844","25.1875","12.5","-3.4375"
"1569311709059","335","-0.859375","-0.4453125","0.28710938","18.53125","10.53125","3.09375"
"1569311709181","336","-0.8544922","-0.44921875","0.2685547","10.96875","8.28125","8.53125"
"1569311709269","337","-0.8496094","-0.48046875","0.2578125","3.71875","6.21875","6.875"
"1569311709362","338","-0.87890625","-0.4375","0.22167969","6.625","7.25","7.0625"
"1569311709480","339","-0.8876953","-0.44140625","0.18066406","-9.53125","-4.78125","6.875"
"1569311709572","340","-0.88671875","-0.4560547","0.24511719","1.28125","4.625","-1.53125"
"1569311709691","341","-0.9140625","-0.4091797","0.20996094","22.875","8.03125","-5.5"
"1569311709780","342","-0.92285156","-0.43066406","0.18652344","27.75","7.96875","-8.0"
"1569311709869","343","-0.88964844","-0.45996094","0.17480469","37.71875","13.03125","-14.71875"
"1569311709959","344","-0.92578125","-0.3876953","0.18457031","55.34375","10.71875","-17.90625"
"1569311710083","345","-0.90625","-0.39257812","0.30566406","45.8125","6.5625","-23.40625"
"1569311710173","346","-0.73535156","-0.4736328","0.32910156","60.15625","12.4375","-25.46875"
"1569311710258","347","-0.7910156","-0.39257812","0.3828125","81.15625","44.125","-12.15625"
"1569311710382","348","-0.82910156","-0.45117188","0.36328125","76.09375","28.625","-28.34375"
"1569311710470","349","-0.78222656","-0.484375","0.3564453","59.0625","0.28125","-51.28125"
"1569311710563","350","-0.7792969","-0.4501953","0.45410156","56.75","15.3125","-53.65625"
"1569311710718","351","-0.6796875","-0.421875","0.5019531","38.25","31.53125","-40.125"
"1569311710771","352","-0.6279297","-0.4091797","0.5126953","19.03125","51.375","-19.25"
"1569311710861","353","-0.6767578","-0.74902344","0.67871094","7.0625","28.0625","0.71875"
"1569311710978","354","-0.9169922","-0.7480469","0.58496094","36.25","24.8125","20.8125"
"1569311711069","355","-0.8984375","-0.5136719","-0.08300781","70.0","55.90625","-29.375"
"1569311711161","356","-0.8486328","-0.32421875","0.08300781","105.5625","103.8125","-3.96875"
"1569311711282","357","-0.89453125","-0.3828125","0.23144531","43.875","63.40625","-1.84375"
"1569311711372","358","-0.95410156","-0.29101562","0.19921875","33.75","61.15625","-2.8125"
"1569311711462","359","-0.82421875","-0.40429688","0.22265625","19.6875","40.15625","-14.90625"
"1569311711549","360","-0.99902344","-0.4375","0.17871094","19.46875","43.5625","-14.0"
"1569311711668","361","-1.0146484","-0.41796875","0.32714844","17.75","34.46875","-8.25"
"1569311711762","362","-1.2744141","-0.6875","-0.08984375","-8.0625","-87.96875","48.9375"
"1569311711850","363","-0.9873047","-0.5703125","0.36132812","52.96875","-87.125","11.40625"
"1569311711972","364","-0.73535156","-0.26464844","0.04296875","18.125","-139.65625","31.125"
"1569311712066","365","-0.7167969","-0.32128906","0.39746094","-56.59375","-53.375","35.5"
"1569311712151","366","-0.5644531","-0.16601562","0.51660156","-23.625","27.875","-1.96875"
"1569311712271","367","-0.9355469","-0.36328125","0.7285156","-46.65625","-7.15625","9.25"
"1569311712362","368","-1.0878906","-0.453125","0.8359375","-70.5625","-50.6875","31.59375"
"1569311712452","369","-0.66503906","-0.4814453","0.2626953","24.21875","18.0","-23.15625"
"1569311712575","370","-1.1191406","-0.10253906","0.1796875","-16.0625","80.71875","-30.34375"
"1569311712665","371","-0.8964844","-0.2705078","-9.765625E-4","-52.9375","45.09375","-19.71875"
"1569311712781","372","-0.8378906","-0.3486328","0.23144531","-8.5","40.75","-11.71875"
"1569311712870","373","-0.8671875","-0.3984375","0.23339844","-0.25","40.15625","-22.0"
"1569311712963","374","-1.03125","-0.39746094","0.25683594","-5.09375","24.875","-4.28125"
"1569311713049","375","-1.3876953","-0.5361328","-0.053710938","-17.65625","-62.46875","58.59375"
"1569311713174","376","-0.9316406","-0.89746094","0.38867188","55.53125","-97.84375","19.40625"
"1569311713261","377","-0.9267578","-0.24609375","0.39746094","5.125","-147.71875","10.0625"
"1569311713352","378","-0.3359375","-0.32714844","0.35742188","-23.75","-80.53125","-7.65625"
"1569311713470","379","-0.41015625","-0.07421875","0.52441406","-41.03125","59.3125","-20.15625"
"1569311713562","380","-1.2226562","-0.7207031","1.0439453","11.9375","-30.03125","24.34375"
"1569311713650","381","-1.7167969","-0.546875","0.64453125","-7.15625","-31.3125","19.6875"
"1569311713773","382","-0.6533203","-0.43554688","-0.041015625","61.8125","77.3125","-41.09375"
"1569311713863","383","-0.9658203","-0.35546875","0.33789062","-11.0625","100.15625","-4.84375"
"1569311713951","384","-0.8847656","-0.33496094","0.22070312","-54.03125","50.15625","-11.84375"
"1569311714071","385","-0.74316406","-0.34472656","0.13378906","-10.8125","45.09375","-14.0625"
"1569311714163","386","-0.9267578","-0.31640625","0.11816406","-6.71875","36.96875","-23.6875"
"1569311714317","387","-1.1064453","-0.6376953","0.3408203","-8.625","29.78125","12.125"
"1569311714372","388","-1.1445312","-0.69140625","-0.2109375","7.90625","-100.25","58.15625"
"1569311714488","389","-1.0371094","-0.5263672","0.26953125","80.3125","-102.0","9.5"
"1569311714552","390","-0.5283203","-0.32421875","0.1484375","20.125","-161.8125","10.375"
"1569311714674","391","-0.5390625","-0.28710938","0.37402344","-49.875","-44.4375","3.84375"
"1569311714757","392","-0.49902344","-0.021484375","0.56152344","-55.6875","62.3125","-13.4375"
"1569311714850","393","-1.2529297","-0.5722656","1.1669922","-16.75","-43.90625","42.78125"
"1569311714970","394","-1.7246094","-0.9042969","0.38867188","10.59375","28.125","31.28125"
"1569311715060","395","-0.71191406","-0.5107422","-0.23242188","60.65625","107.65625","-43.34375"
"1569311715150","396","-0.8105469","-0.38867188","0.23242188","6.28125","111.0625","9.03125"
"1569311715273","397","-0.90234375","-0.29785156","0.2861328","-15.6875","66.03125","-24.3125"
"1569311715359","398","-0.75390625","-0.359375","0.20996094","-9.0625","48.09375","-19.3125"
"1569311715451","399","-0.9902344","-0.18554688","0.13085938","-8.6875","38.0","-24.78125"
"1569311715608","400","-0.9609375","-0.5595703","0.32617188","-3.5625","28.90625","3.09375"
"1569311715662","401","-1.4892578","-0.45507812","-0.1015625","-27.65625","-48.125","51.5625"
"1569311715752","402","-0.96972656","-0.7636719","0.34960938","87.3125","-89.75","14.09375"
"1569311715872","403","-0.921875","-0.28222656","0.15332031","32.46875","-149.5","16.71875"
"1569311715963","404","-0.5449219","-0.34472656","0.45507812","-37.1875","-71.375","6.46875"
"1569311716049","405","-0.4345703","-0.115234375","0.46289062","-36.875","48.9375","-22.125"
"1569311716172","406","-1.1552734","-0.578125","0.828125","-9.84375","0.09375","10.71875"
"1569311716262","407","-0.8154297","-0.26660156","0.7167969","-2.40625","-11.6875","20.25"
"1569311716353","408","-0.5029297","-0.58691406","0.35839844","26.46875","45.8125","-13.875"
"1569311716470","409","-0.97558594","-0.38183594","0.061523438","5.84375","65.59375","-50.375"
"1569311716560","410","-0.70703125","-0.39257812","0.14941406","15.5","74.375","-26.375"
"1569311716649","411","-0.9433594","-0.30078125","0.203125","6.03125","57.1875","-16.25"
"1569311716800","412","-0.8730469","-0.3408203","0.15625","10.25","41.1875","-23.28125"
"1569311716858","413","-1.0654297","-0.34765625","0.16992188","-2.53125","28.125","-14.46875"
"1569311716950","414","-1.3115234","-0.18457031","0.053710938","15.78125","20.5","20.0625"
"1569311717069","415","-0.80566406","-0.82910156","-0.11816406","49.84375","-101.875","35.625"
"1569311717162","416","-1.0214844","-0.35253906","-0.055664062","148.375","-87.71875","1.09375"
"1569311717248","417","-0.5498047","-0.15429688","0.20800781","-10.40625","-111.28125","-12.53125"
"1569311717374","418","-0.4794922","-0.25585938","0.3779297","-33.09375","5.46875","-15.75"
"1569311717461","419","-0.8144531","-0.18847656","0.67578125","-26.3125","48.8125","-7.03125"
"1569311717549","420","-0.7080078","-0.18066406","0.9501953","1.6875","-41.03125","39.53125"
"1569311717668","421","-0.94433594","-0.95410156","0.3935547","30.8125","60.71875","24.28125"
"1569311717763","422","-0.85839844","-0.5878906","-0.26953125","51.1875","112.71875","-54.34375"
"1569311717851","423","-0.6689453","-0.4111328","0.29882812","-19.1875","73.46875","-3.96875"
"1569311717971","424","-0.94433594","-0.2939453","0.25976562","-18.4375","57.125","-13.875"
"1569311718139","425","-0.7832031","-0.38476562","0.13476562","2.5","58.40625","-17.28125"
"1569311718149","426","-0.96191406","-0.3310547","0.08984375","-17.59375","28.125","-23.40625"
"1569311718269","427","-1.0615234","-0.60839844","0.2783203","24.09375","29.28125","3.15625"
"1569311718358","428","-1.109375","-0.7919922","-0.08886719","14.28125","-81.75","49.0625"
"1569311718451","429","-1.0957031","-0.4765625","0.022460938","125.03125","-78.09375","14.625"
"1569311718574","430","-0.6855469","-0.3486328","0.18945312","19.03125","-117.5","12.125"
"1569311718660","431","-0.46875","-0.3798828","0.43164062","-79.25","-98.28125","-10.75"
"1569311718753","432","-0.73046875","-0.3017578","0.546875","-17.84375","50.21875","-4.96875"
"1569311718871","433","-0.87109375","-0.32128906","0.6826172","-17.96875","13.40625","0.84375"
"1569311718961","434","-0.51953125","-0.123046875","0.8017578","2.96875","-13.375","37.15625"
"1569311719050","435","-1.9511719","-1.3349609","0.3720703","-6.25","52.21875","1.4375"
"1569311719171","436","-0.72753906","-0.37695312","-0.18945312","35.6875","45.53125","-31.09375"
"1569311719258","437","-0.7626953","-0.5703125","0.39941406","15.5","86.09375","13.90625"
"1569311719349","438","-1.0068359","-0.3564453","0.14257812","8.53125","50.09375","-11.0"
"1569311719471","439","-0.8701172","-0.46289062","0.14648438","23.46875","36.53125","1.9375"
"1569311719560","440","-0.8359375","-0.39453125","0.078125","0.28125","25.1875","-13.25"
"1569311719655","441","-0.9667969","-0.43945312","0.15234375","-9.53125","28.78125","-2.59375"
"1569311719775","442","-0.9453125","-0.4013672","0.16503906","18.0","33.1875","-13.9375"
"1569311719860","443","-0.8964844","-0.41015625","0.25976562","0.65625","41.4375","-18.9375"
"1569311719951","444","-1.3789062","-0.1328125","-0.03125","-15.8125","14.6875","9.625"
"1569311720069","445","-0.7763672","-0.9609375","0.047851562","63.09375","-96.5625","15.0"
"1569311720163","446","-0.94433594","-0.25097656","-0.103515625","112.71875","-74.34375","26.78125"
"1569311720254","447","-0.72558594","-0.3828125","0.16601562","-6.125","-136.71875","-10.40625"
"1569311720373","448","-0.5185547","-0.3203125","0.29101562","-5.875","-40.71875","-14.46875"
"1569311720464","449","-0.6826172","-0.25097656","0.6074219","-44.4375","11.40625","-8.8125"
"1569311720548","450","-0.89453125","-0.48535156","0.70703125","-31.3125","-39.8125","24.28125"
"1569311720701","451","-1.2607422","-0.74902344","0.6542969","-36.75","-59.9375","20.1875"
"1569311720757","452","-0.9248047","-0.4326172","0.08984375","34.21875","69.25","-23.40625"
"1569311720848","453","-0.9472656","-0.32617188","0.29003906","-39.5","63.71875","8.59375"
"1569311720971","454","-0.7519531","-0.3125","0.17578125","-36.5","32.875","5.34375"
"1569311721060","455","-0.8417969","-0.42773438","0.21484375","-71.1875","25.375","4.25"
"1569311721156","456","-0.8183594","-0.45410156","0.18652344","-33.21875","36.25","-7.875"
"1569311721331","457","-0.9042969","-0.39746094","0.060546875","-23.6875","20.375","-12.40625"
"1569311721362","458","-0.9873047","-0.5878906","0.2626953","-5.03125","23.25","-3.625"
"1569311721454","459","-1.5009766","-0.33398438","-0.041992188","-32.375","-57.375","49.3125"
"1569311721569","460","-0.82714844","-0.6777344","0.27441406","41.625","-108.34375","-3.96875"
"1569311721663","461","-0.9511719","-0.38476562","0.17285156","33.84375","-116.34375","18.0"
"1569311721755","462","-0.15722656","-0.53808594","-0.62890625","-15.59375","-91.6875","27.09375"
"1569311721871","463","-0.6191406","-0.2841797","0.4033203","-48.96875","0.09375","13.65625"
"1569311721992","464","-0.77441406","-0.29882812","0.5419922","-42.5","0.59375","1.21875"
"1569311722049","465","-1.1464844","-0.26953125","0.76464844","-28.21875","-29.0","48.375"
"1569311722174","466","-1.1816406","-0.4501953","0.5019531","-79.59375","-24.96875","34.59375"
"1569311722263","467","-0.6826172","-0.36523438","0.18066406","19.9375","28.1875","-30.09375"
"1569311722352","468","-0.97753906","-0.2939453","0.25585938","-68.875","46.0625","5.125"
"1569311722468","469","-0.81933594","-0.4091797","0.09863281","-59.40625","37.15625","-1.59375"
"1569311722562","470","-0.87890625","-0.34375","0.23535156","-41.75","25.0625","0.84375"
"1569311722653","471","-0.77246094","-0.44140625","0.22265625","-15.28125","41.78125","-14.25"
"1569311722769","472","-0.95703125","-0.3251953","0.001953125","-23.15625","16.09375","-15.40625"
"1569311722863","473","-1.2412109","-0.4921875","0.16796875","9.5","25.0625","0.40625"
"1569311722950","474","-0.7919922","-0.7685547","-0.14550781","14.9375","-106.40625","30.5"
"1569311723069","475","-1.0742188","-0.33496094","0.030273438","80.625","-85.21875","-1.78125"
"1569311723190","476","-0.6845703","-0.32128906","0.32226562","-15.15625","-129.34375","23.84375"
"1569311723252","477","-0.703125","-0.33203125","0.20410156","-62.28125","-60.5625","39.0625"
"1569311723371","478","-0.57421875","-0.16015625","0.50390625","-51.46875","10.40625","10.0625"
"1569311723460","479","-0.84277344","-0.41796875","0.75878906","-70.21875","-15.21875","17.625"
"1569311723549","480","-1.2197266","-0.4111328","0.7988281","-29.375","-42.8125","33.3125"
"1569311723672","481","-0.75878906","-0.43554688","0.4560547","7.625","10.59375","-24.375"
"1569311723759","482","-0.94433594","-0.3408203","0.35839844","-79.84375","49.0","-13.8125"
"1569311723853","483","-0.73046875","-0.3984375","0.11328125","-56.28125","39.84375","-9.53125"
"1569311723976","484","-0.84472656","-0.3544922","0.24023438","-42.6875","42.71875","1.75"
"1569311724058","485","-0.7685547","-0.50097656","0.296875","0.84375","65.34375","-19.3125"
"1569311724152","486","-0.9326172","-0.30566406","0.059570312","-27.59375","20.1875","-18.09375"
"1569311724272","487","-1.2412109","-0.25","0.045898438","6.6875","9.875","-6.71875"
"1569311724363","488","-0.9316406","-1.0234375","-0.2734375","-38.65625","-103.09375","43.5"
"1569311724448","489","-0.9609375","-0.41308594","0.15039062","121.5625","-77.21875","21.65625"
"1569311724569","490","-0.48828125","-0.26464844","0.16796875","-34.375","-121.65625","26.15625"
"1569311724663","491","-0.6640625","-0.31152344","0.22070312","-55.5625","-20.65625","26.84375"
"1569311724752","492","-0.8017578","-0.1953125","0.5078125","-72.53125","13.40625","-4.40625"
"1569311724870","493","-1.0185547","-0.29296875","0.85058594","-41.28125","-37.1875","41.25"
"1569311724962","494","-1.4716797","-1.0742188","-0.30273438","-54.53125","57.90625","22.25"
"1569311725048","495","-0.6738281","-0.35742188","-0.12011719","46.125","37.875","-23.8125"
"1569311725171","496","-0.33691406","-0.67285156","0.40722656","-82.0","102.15625","30.8125"
"1569311725261","497","-1.0273438","-0.23730469","0.15429688","-70.9375","63.9375","4.1875"
"1569311725348","498","-0.74609375","-0.4501953","0.18066406","-36.5625","16.59375","-11.25"
"1569311725474","499","-0.91796875","-0.32617188","0.20117188","-25.96875","18.46875","-19.78125"
"1569311725559","500","-0.9628906","-0.4169922","0.25","-48.28125","-12.53125","-6.25"
"1569311725650","501","-1.2392578","-0.4794922","-0.18652344","-49.625","-87.0","47.78125"
"1569311725809","502","-0.9873047","-0.3095703","0.3779297","71.40625","-116.28125","8.53125"
"1569311725892","503","-0.6201172","-0.27734375","0.20117188","-17.71875","-108.78125","52.46875"
"1569311725951","504","-0.6269531","-0.38378906","0.2890625","-82.46875","-53.3125","39.84375"
"1569311726070","505","-0.6220703","-0.23242188","0.5332031","-49.34375","8.78125","11.03125"
"1569311726160","506","-1.1650391","-0.33398438","0.8066406","-37.0","-35.34375","38.25"
"1569311726250","507","-2.0","-0.640625","0.6455078","-42.25","-55.4375","24.34375"
"1569311726373","508","-0.7861328","-0.40722656","-0.0078125","58.34375","52.84375","-30.53125"
"1569311726458","509","-0.80566406","-0.4375","0.29589844","-11.3125","93.25","23.59375"
"1569311726549","510","-0.8408203","-0.25683594","0.15429688","-94.25","62.4375","0.0"
"1569311726669","511","-0.7109375","-0.4501953","0.25","-42.96875","37.34375","-7.34375"
"1569311726759","512","-0.9716797","-0.3017578","0.076171875","-11.5","29.90625","-25.09375"
"1569311726848","513","-1.1240234","-0.51660156","0.3125","-22.40625","19.40625","-0.9375"
"1569311727001","514","-1.3916016","-0.53125","-0.13964844","-23.9375","-102.75","59.8125"
"1569311727058","515","-0.95996094","-0.61035156","0.28222656","3.15625","-127.875","5.65625"
"1569311727148","516","-0.7294922","-0.19824219","-0.3701172","20.375","-156.6875","37.9375"
"1569311727268","517","-0.5800781","-0.38378906","0.23828125","-8.875","-61.0","4.9375"
"1569311727359","518","-0.5488281","-0.15820312","0.5810547","-37.0","39.21875","-7.71875"
"1569311727448","519","-1.1083984","-0.421875","0.89746094","-29.375","-32.1875","20.25"
"1569311727568","520","-1.7685547","-1.0898438","0.5605469","-32.71875","-56.46875","7.5"
"1569311727658","521","-0.8808594","-0.36816406","-0.11621094","81.03125","68.90625","-35.71875"
"1569311727748","522","-0.9716797","-0.37695312","0.37890625","-38.65625","89.59375","-9.40625"
"1569311727869","523","-0.8300781","-0.38183594","0.09375","-49.875","75.71875","-15.625"
"1569311727958","524","-0.8671875","-0.37890625","0.2607422","-19.5","45.625","-12.40625"
"1569311728049","525","-0.87402344","-0.35351562","0.13671875","-9.46875","33.90625","-25.90625"
"1569311728171","526","-1.0117188","-0.51171875","0.2783203","-12.84375","28.4375","-5.3125"
"1569311728260","527","-1.4794922","-0.47753906","-0.115234375","-13.9375","-71.78125","56.625"
"1569311728379","528","-1.0126953","-0.59375","0.3359375","8.59375","-137.90625","11.71875"
"1569311728441","529","-0.85058594","-0.54785156","0.26757812","39.09375","-122.8125","48.1875"
"1569311728559","530","-0.63964844","-0.34960938","0.33496094","-24.25","-88.5625","9.3125"
"1569311728650","531","-0.57714844","-0.103515625","0.5332031","-39.75","35.1875","-16.6875"
"1569311728771","532","-1.1367188","-0.3017578","0.85839844","-44.875","-40.46875","13.84375"
"1569311728858","533","-0.95410156","-0.5","0.69140625","-70.3125","-43.40625","16.34375"
"1569311728949","534","-0.41796875","-0.41796875","0.20898438","55.53125","49.125","-21.3125"
"1569311729047","535","-1.2314453","-0.27246094","0.3310547","-37.90625","91.28125","-10.625"
"1569311729159","536","-1.0029297","-0.3935547","0.11425781","-33.21875","61.375","-24.3125"
"1569311729249","537","-0.79003906","-0.4248047","0.27246094","-10.6875","51.5","-11.78125"
"1569311729492","538","-0.9082031","-0.4248047","0.33203125","-5.21875","45.625","-29.0625"
"1569311729492","539","-1.1464844","-0.4736328","0.24023438","-21.75","21.59375","2.25"
"1569311729549","540","-1.203125","-0.8076172","-0.11328125","13.28125","-111.84375","51.5625"
"1569311729674","541","-0.9628906","-0.5800781","0.25390625","65.28125","-117.15625","9.03125"
"1569311729762","542","-0.5673828","-0.27148438","-0.0859375","10.0625","-163.28125","34.96875"
"1569311729851","543","-0.32714844","-0.22753906","0.25585938","-28.53125","-62.15625","-14.34375"
"1569311729942","544","-0.6171875","-0.095703125","0.68652344","-36.40625","56.25","0.28125"
"1569311730060","545","-1.1191406","-0.41992188","0.9638672","-7.53125","-48.1875","34.28125"
"1569311730149","546","-2.0","-0.8183594","0.6875","-6.0625","-35.78125","13.0"
"1569311730271","547","-0.91503906","-0.4970703","-0.18066406","41.5","116.4375","-40.53125"
"1569311730361","548","-0.8417969","-0.42089844","0.14941406","3.46875","99.15625","8.28125"
"1569311730449","549","-0.9140625","-0.2841797","0.22265625","-12.34375","77.3125","0.90625"
"1569311730540","550","-0.7421875","-0.3564453","0.15429688","-12.15625","40.9375","-16.6875"
"1569311730661","551","-0.9267578","-0.3076172","0.08984375","-21.6875","27.4375","-27.25"
"1569311730752","552","-1.1240234","-0.6591797","0.4091797","10.46875","34.28125","-0.75"
"1569311730839","553","-1.1757812","-0.60839844","-0.1796875","-18.5","-118.65625","62.1875"
"1569311730960","554","-0.95214844","-0.6269531","0.375","69.375","-90.59375","10.0625"
"1569311731050","555","-0.62109375","-0.24609375","-0.041015625","-7.15625","-159.375","35.9375"
"1569311731142","556","-0.45214844","-0.3154297","0.3486328","-42.4375","-51.09375","-6.3125"
"1569311731260","557","-0.5625","-0.13378906","0.59472656","-27.125","65.09375","-11.5"
"1569311731351","558","-0.9970703","-0.48242188","1.0390625","1.15625","-62.5","24.8125"
"1569311731439","559","-2.0","-0.98046875","0.43554688","-30.46875","-67.65625","8.21875"
"1569311731561","560","-0.9160156","-0.5595703","-0.20117188","62.3125","90.9375","-32.65625"
"1569311731652","561","-0.8964844","-0.34960938","0.16992188","-5.375","102.9375","-2.28125"
"1569311731771","562","-0.9638672","-0.3310547","0.13183594","-23.03125","84.34375","-7.21875"
"1569311731859","563","-0.8066406","-0.32421875","0.24609375","-19.0","38.6875","-22.78125"
"1569311731951","564","-0.8886719","-0.3828125","0.1796875","-16.8125","30.6875","-29.96875"
"1569311732038","565","-1.03125","-0.5","0.3251953","-6.125","30.3125","-0.625"
"1569311732161","566","-1.3613281","-0.64941406","-0.06640625","-28.15625","-79.25","63.40625"
"1569311732253","567","-0.9296875","-0.66796875","0.047851562","28.125","-99.25","13.90625"
"1569311732342","568","-0.8574219","-0.35742188","0.11230469","44.84375","-164.875","35.3125"
"1569311732462","569","-0.47851562","-0.31640625","0.50097656","-35.65625","-76.25","-7.875"
"1569311732557","570","-0.4794922","-0.0107421875","0.50390625","-41.34375","54.6875","-10.03125"
"1569311732640","571","-1.1269531","-0.56640625","0.95410156","-33.875","-52.4375","19.875"
"1569311732761","572","-1.3242188","-0.78515625","0.7685547","-46.9375","-36.8125","22.625"
"1569311732851","573","-0.8173828","-0.37402344","0.20214844","60.09375","26.34375","-39.375"
"1569311732940","574","-1.1201172","-0.3203125","0.39941406","-42.5","101.0625","-23.9375"
"1569311733060","575","-0.75683594","-0.40625","0.044921875","-46.21875","66.34375","-19.65625"
"1569311733153","576","-0.8564453","-0.3330078","0.29003906","-4.03125","50.53125","-15.59375"
"1569311733239","577","-0.90527344","-0.4296875","0.22949219","-2.09375","50.53125","-32.96875"
"1569311733362","578","-1.0996094","-0.41992188","0.23242188","-21.8125","28.0625","-1.96875"
"1569311733519","579","-1.4384766","-0.5126953","-0.0146484375","-20.21875","-47.875","44.78125"
"1569311733542","580","-0.9902344","-0.74316406","0.16894531","1.625","-111.71875","24.8125"
"1569311733662","581","-1.1298828","-0.6113281","0.24414062","103.125","-70.4375","35.09375"
"1569311733751","582","-0.36523438","-0.23535156","0.27441406","-58.125","-102.75","7.3125"
"1569311733842","583","-0.46679688","-0.13085938","0.4169922","-52.75","22.09375","-12.71875"
"1569311733959","584","-1.2304688","-0.6298828","0.9111328","-37.78125","-11.0625","7.5"
"1569311734051","585","-0.6855469","-0.4580078","0.6191406","-9.40625","-30.46875","11.9375"
"1569311734140","586","-0.6328125","-0.45214844","0.34960938","27.34375","3.9375","-25.84375"
"1569311734258","587","-1.1123047","-0.3232422","0.18554688","-47.25","76.59375","-48.0625"
"1569311734348","588","-0.7236328","-0.3125","0.044921875","-32.59375","49.0625","-26.4375"
"1569311734439","589","-0.765625","-0.27148438","0.25878906","-8.25","51.0625","-14.53125"
"1569311734559","590","-0.875","-0.46484375","0.23925781","7.3125","56.25","-28.21875"
"1569311734651","591","-1.1191406","-0.3876953","0.20019531","-25.59375","20.90625","-6.5"
"1569311734805","592","-1.3701172","-0.60253906","0.046875","-13.125","-59.15625","57.0625"
"1569311734859","593","-1.0439453","-0.76464844","0.2705078","33.75","-127.46875","21.90625"
"1569311734951","594","-0.96875","-0.33691406","0.17773438","47.59375","-102.0625","26.59375"
"1569311735045","595","-0.3935547","-0.36035156","0.37695312","-26.125","-82.34375","3.9375"
"1569311735160","596","-0.51660156","-0.13867188","0.5341797","-24.78125","48.5","-12.21875"
"1569311735250","597","-1.0175781","-0.4609375","0.8496094","-37.375","6.8125","7.125"
"1569311735338","598","-0.93359375","-0.6748047","0.74902344","-7.71875","-37.25","25.875"
"1569311735461","599","-0.5214844","-0.6923828","0.5136719","45.46875","43.5625","-28.28125"
"1569311735552","600","-0.8828125","-0.42089844","0.13574219","23.4375","99.71875","-57.21875"
"1569311735640","601","-0.7216797","-0.38671875","0.20019531","-1.125","62.375","-35.71875"
"1569311735762","602","-0.85058594","-0.36035156","0.23925781","-6.5","65.0625","-2.9375"
"1569311735881","603","-0.6845703","-0.4716797","0.17480469","-7.59375","50.53125","-25.59375"
"1569311735943","604","-1.0957031","-0.28320312","0.27734375","20.75","38.5","-13.625"
"1569311736063","605","-1.4589844","-0.21582031","-0.1640625","1.28125","1.15625","22.8125"
"1569311736148","606","-1.0263672","-0.7480469","-0.1015625","26.15625","-124.71875","34.15625"
"1569311736239","607","-1.1484375","-0.39648438","0.28125","160.1875","-52.6875","16.84375"
"1569311736362","608","-0.4345703","-0.34765625","0.4248047","-23.8125","-121.09375","4.25"
"1569311736451","609","-0.41210938","-0.20703125","0.3095703","-47.75","-28.53125","-12.09375"
"1569311736541","610","-0.84765625","-0.2763672","0.76464844","-37.78125","24.75","4.625"
"1569311736659","611","-0.82421875","-0.24023438","0.875","1.375","-14.34375","41.0"
"1569311736751","612","-0.17285156","-0.85839844","0.34960938","17.6875","22.875","19.34375"
"1569311736839","613","-0.8466797","-0.5800781","-0.048828125","30.75","115.21875","-37.78125"
"1569311736961","614","-0.46875","-0.58496094","0.39453125","-32.0","84.9375","5.59375"
"1569311737051","615","-0.97558594","-0.24511719","0.22753906","-19.53125","82.5625","3.46875"
"1569311737139","616","-0.73339844","-0.37597656","0.23828125","-0.875","43.125","-19.0"
"1569311737329","617","-1.0195312","-0.28125","0.05078125","-15.59375","23.3125","-24.625"
"1569311737353","618","-1.2197266","-0.4560547","0.25976562","9.375","27.4375","1.09375"
"1569311737439","619","-0.8300781","-0.7714844","-0.16210938","0.78125","-110.1875","55.65625"
"1569311737561","620","-1.0322266","-0.6152344","0.19824219","113.03125","-90.46875","21.65625"
"1569311737649","621","-0.5097656","-0.2919922","0.12988281","12.9375","-148.875","17.8125"
"1569311737743","622","-0.40625","-0.24511719","0.30566406","-12.03125","-50.375","-23.75"
"1569311737858","623","-0.6455078","-0.16796875","0.5996094","-24.78125","53.5625","-14.125"
"1569311737952","624","-1.0478516","-0.39453125","0.93359375","-6.125","-50.78125","32.75"
"1569311738040","625","-0.47558594","-0.0234375","0.6855469","-19.84375","-54.34375","46.4375"
"1569311738163","626","-0.6982422","-0.82128906","0.140625","-3.375","111.0","-12.71875"
"1569311738252","627","-0.8935547","-0.43847656","0.055664062","7.25","103.875","-5.3125"
"1569311738343","628","-0.8613281","-0.20019531","0.0029296875","-31.21875","93.90625","-11.3125"
"1569311738462","629","-0.7685547","-0.3076172","0.31054688","-6.375","52.90625","-17.78125"
"1569311738615","630","-0.93066406","-0.3515625","0.12695312","-16.25","31.125","-32.78125"
"1569311738638","631","-1.1357422","-0.49414062","0.20996094","-1.90625","32.34375","-6.59375"
"1569311738762","632","-1.3105469","-0.6044922","0.07910156","-9.46875","-74.90625","50.59375"
"1569311738852","633","-1.0839844","-0.70410156","0.3154297","8.84375","-128.375","15.71875"
"1569311738942","634","-0.94921875","-0.39648438","0.25195312","51.3125","-100.34375","51.3125"
"1569311739059","635","-0.35058594","-0.40234375","0.3486328","-30.21875","-99.0","13.53125"
"1569311739150","636","-0.4267578","-0.103515625","0.46484375","-42.5625","44.65625","-11.96875"
"1569311739240","637","-1.0703125","-0.58496094","0.94433594","-40.59375","-8.9375","13.34375"
"1569311739359","638","-1.4257812","-0.8154297","0.7734375","-8.75","-36.8125","23.4375"
"1569311739453","639","-0.859375","-0.39257812","0.28710938","54.96875","21.34375","-40.375"
"1569311739574","640","-0.9921875","-0.23339844","0.23730469","-10.15625","98.8125","-33.46875"
"1569311739659","641","-0.8886719","-0.2890625","0.078125","-33.53125","59.6875","-17.84375"
"1569311739751","642","-0.77246094","-0.3154297","0.2998047","-16.5","38.8125","-15.53125"
"1569311739914","643","-0.8076172","-0.39453125","0.20605469","-7.15625","36.84375","-30.84375"
"1569311739961","644","-1.0966797","-0.47070312","0.33398438","-42.75","20.375","-1.40625"
"1569311740054","645","-1.4726562","-0.4794922","-0.013671875","-25.09375","-61.84375","53.9375"
"1569311740139","646","-0.9716797","-0.7763672","0.17480469","11.59375","-119.71875","17.625"
"1569311740262","647","-0.9580078","-0.484375","0.28027344","76.78125","-129.28125","19.40625"
"1569311740355","648","-0.3828125","-0.33496094","0.35546875","-49.34375","-92.0","5.0"
"1569311740439","649","-0.43847656","-0.109375","0.41601562","-41.28125","44.65625","-11.0625"
"1569311740562","650","-1.3085938","-0.6738281","0.9560547","-27.78125","-13.4375","13.34375"
"1569311740649","651","-1.0791016","-0.75390625","0.8125","-4.46875","-27.53125","22.375"
"1569311740741","652","-0.7705078","-0.41210938","0.34472656","34.15625","8.71875","-45.59375"
"1569311740861","653","-1.1630859","-0.44628906","0.4267578","-49.40625","80.3125","-36.28125"
"1569311740948","654","-0.703125","-0.37695312","0.030273438","-37.625","53.5625","-22.28125"
"1569311741042","655","-0.81640625","-0.31933594","0.22363281","-14.0","58.34375","-8.0"
"1569311741160","656","-0.8642578","-0.43554688","0.23339844","10.96875","51.6875","-25.53125"
"1569311741253","657","-1.0361328","-0.42871094","0.18359375","-25.84375","26.46875","-7.875"
"1569311741342","658","-1.4462891","-0.3623047","-0.048828125","-29.4375","-21.4375","24.53125"
"1569311741462","659","-0.8808594","-0.82910156","0.0234375","-2.46875","-125.375","39.15625"
"1569311741553","660","-1.1113281","-0.36328125","0.026367188","103.0625","-59.59375","27.75"
"1569311741638","661","-0.5683594","-0.29101562","0.3310547","-9.15625","-104.6875","23.59375"
"1569311741760","662","-0.37695312","-0.17089844","0.30566406","-51.53125","9.03125","-12.84375"
"1569311741852","663","-1.1181641","-0.46679688","0.90722656","-42.5625","10.84375","8.21875"
"1569311741942","664","-0.6689453","-0.29785156","0.7841797","18.53125","-11.0625","34.65625"
"1569311742062","665","-0.5214844","-0.5673828","0.32714844","25.1875","19.625","-13.0625"
"1569311742149","666","-1.1992188","-0.3984375","-0.009765625","-23.8125","48.75","-54.6875"
"1569311742239","667","-0.69628906","-0.33203125","0.13964844","-33.78125","66.625","-32.0"
"1569311742398","668","-0.7861328","-0.23925781","0.2265625","1.5625","60.90625","-10.03125"
"1569311742451","669","-0.9140625","-0.37695312","0.11328125","0.78125","55.28125","-31.5"
"1569311742538","670","-1.1074219","-0.47460938","0.2548828","-25.96875","23.375","-11.4375"
"1569311742659","671","-1.5253906","-0.33398438","-0.09765625","-32.1875","-50.1875","34.84375"
"1569311742752","672","-0.98046875","-0.8779297","0.17578125","0.65625","-105.71875","25.5"
"1569311742840","673","-0.9628906","-0.5205078","0.1875","65.90625","-108.53125","25.875"
"1569311743062","674","-0.40234375","-0.48632812","0.58984375","-63.125","-129.65625","34.28125"
"1569311743062","675","-0.39160156","-0.15820312","0.3671875","-47.0625","27.28125","-7.875"
"1569311743140","676","-1.1699219","-0.58691406","0.75683594","-35.0625","3.03125","5.59375"
"1569311743261","677","-1.15625","-0.5283203","0.90722656","1.09375","-22.59375","31.59375"
"1569311743353","678","-0.7207031","-0.5888672","0.55566406","21.53125","3.34375","-33.28125"
"1569311743442","679","-0.81640625","-0.21289062","0.12988281","-4.46875","96.125","-41.9375"
"1569311743563","680","-0.79003906","-0.31835938","0.09375","-30.28125","44.1875","-38.15625"
"1569311743651","681","-0.8232422","-0.2919922","0.20410156","-1.34375","53.03125","-6.78125"
"1569311743742","682","-0.8046875","-0.4345703","0.24707031","6.6875","57.0625","-24.75"
"1569311743862","683","-1.0683594","-0.40039062","0.20605469","-28.75","20.25","-6.4375"
"1569311743953","684","-1.4511719","-0.2421875","-0.03515625","0.78125","-10.5","22.3125"
"1569311744039","685","-0.8955078","-0.73339844","-0.0126953125","53.5","-114.21875","34.28125"
"1569311744159","686","-1.1367188","-0.2548828","-0.04296875","106.1875","-21.5","28.90625"
"1569311744252","687","-0.42578125","-0.119140625","-0.30664062","-23.9375","-119.09375","2.3125"
"1569311744342","688","-0.47460938","-0.26660156","0.38085938","-44.21875","12.875","-12.78125"
"1569311744459","689","-1.125","-0.4736328","0.74121094","-26.1875","29.84375","-4.21875"
"1569311744552","690","-0.56152344","0.1640625","0.8095703","-15.15625","-20.46875","28.125"
"1569311744640","691","-0.17871094","-0.8623047","0.46289062","32.625","-14.53125","27.6875"
"1569311744762","692","-1.0332031","-0.57421875","-0.09765625","23.78125","118.6875","-64.65625"
"1569311744848","693","-0.4140625","-0.5078125","0.33007812","-30.09375","70.71875","-17.78125"
"1569311744942","694","-0.8359375","-0.24804688","0.21777344","-0.8125","69.375","-10.6875"
"1569311745061","695","-0.8095703","-0.41210938","0.24121094","-13.6875","56.75","-11.0625"
"1569311745149","696","-0.98339844","-0.39160156","0.16894531","-13.4375","33.96875","-14.65625"
"1569311745241","697","-1.1269531","-0.53808594","0.31640625","35.09375","45.21875","-12.71875"
"1569311745363","698","-1.2509766","-0.5449219","-0.16601562","-20.34375","-103.96875","58.09375"
"1569311745449","699","-0.99609375","-0.578125","0.22265625","65.59375","-111.96875","9.9375"
"1569311745541","700","-0.50878906","-0.26757812","-0.2607422","15.78125","-151.25","44.1875"
"1569311745638","701","-0.578125","-0.27539062","0.28710938","-31.4375","-46.59375","2.0"
"1569311745754","702","-0.50683594","-0.14257812","0.5449219","-44.875","45.09375","-12.09375"
"1569311745842","703","-1.1025391","-0.41992188","1.0507812","-4.34375","-70.5","24.71875"
"1569311745933","704","-1.3720703","-0.81152344","0.6435547","-35.40625","-2.6875","24.59375"
"1569311746051","705","-0.6591797","-0.2705078","0.07324219","59.4375","73.59375","-33.59375"
"1569311746139","706","-0.99609375","-0.4013672","0.27246094","-55.625","91.65625","0.15625"
"1569311746298","707","-0.7910156","-0.36523438","-0.0234375","-40.90625","69.5625","-7.78125"
"1569311746352","708","-0.859375","-0.25976562","0.203125","-19.84375","37.34375","-12.84375"
"1569311746439","709","-0.8535156","-0.45410156","0.18164062","26.90625","57.78125","-21.8125"
"1569311746533","710","-1.1074219","-0.4736328","0.27929688","-33.40625","23.59375","-1.3125"
"1569311746649","711","-1.328125","-0.6308594","-0.04296875","-12.96875","-69.0","44.25"
"1569311746739","712","-0.94433594","-0.78222656","0.20214844","-34.0625","-137.09375","17.5"
"1569311746832","713","-0.8730469","-0.48828125","0.3330078","57.84375","-107.125","14.6875"
"1569311746952","714","-0.43359375","-0.19628906","0.31054688","-46.875","-75.875","8.96875"
"1569311747043","715","-0.48046875","-0.15820312","0.46972656","-28.46875","45.40625","-4.03125"
"1569311747138","716","-1.2119141","-0.5566406","1.0283203","2.375","-46.9375","16.34375"
"1569311747252","717","-1.6757812","-0.7685547","0.8144531","-43.40625","-34.75","31.96875"
"1569311747342","718","-0.7138672","-0.3544922","0.08203125","74.15625","61.4375","-42.6875"
"1569311747429","719","-1.0263672","-0.31445312","0.39453125","-18.21875","108.1875","-6.53125"
"1569311747587","720","-0.83984375","-0.35058594","0.07519531","-45.1875","62.375","-8.5"
"1569311747643","721","-0.80566406","-0.32128906","0.16308594","-11.84375","29.40625","-7.875"
"1569311747758","722","-0.8408203","-0.453125","0.13867188","1.75","43.9375","-27.96875"
"1569311747855","723","-1.1142578","-0.52441406","0.30664062","-42.625","31.25","-0.375"
"1569311747941","724","-1.3535156","-0.6191406","0.021484375","-14.0625","-60.1875","51.25"
"1569311748028","725","-1.0507812","-0.77734375","0.1640625","0.03125","-103.21875","24.34375"
"1569311748148","726","-0.9453125","-0.4951172","0.06933594","52.15625","-126.71875","28.0"
"1569311748268","727","-0.4033203","-0.29882812","0.24804688","-30.71875","-95.65625","8.34375"
"1569311748361","728","-0.37304688","-0.15234375","0.4560547","-34.25","49.59375","-19.53125"
"1569311748448","729","-1.2558594","-0.60839844","0.8105469","-18.9375","-3.1875","10.78125"
"1569311748539","730","-0.4970703","-0.42089844","0.68652344","-18.25","-36.03125","10.90625"
"1569311748629","731","-0.2861328","-0.53027344","0.29589844","51.0625","9.375","-3.5"
"1569311748785","732","-0.9482422","-0.53027344","0.06738281","-18.8125","81.96875","-63.5625"
"1569311748841","733","-0.5908203","-0.390625","0.3310547","-16.5","60.65625","-29.0625"
"1569311748933","734","-0.9121094","-0.29882812","0.28125","1.9375","62.71875","-10.09375"
"1569311749050","735","-0.7861328","-0.42578125","0.29492188","-13.0625","55.40625","-24.125"
"1569311749141","736","-1.015625","-0.37402344","0.19433594","-16.4375","20.96875","-14.65625"
"1569311749260","737","-1.2851562","-0.25585938","-0.017578125","8.09375","22.625","15.84375"
"1569311749379","738","-0.87890625","-0.734375","-0.22949219","31.78125","-106.09375","36.71875"
"1569311749445","739","-1.0546875","-0.42871094","0.015625","117.0","-94.8125","3.15625"
"1569311749534","740","-0.40527344","-0.24121094","0.036132812","11.9375","-102.90625","-11.6875"
"1569311749652","741","-0.4111328","-0.26953125","0.38378906","-49.6875","-8.25","-3.375"
"1569311749741","742","-0.8955078","-0.30566406","0.7138672","-2.75","48.03125","3.59375"
"1569311749832","743","-0.8515625","-0.024414062","0.9316406","-5.5625","-54.65625","25.9375"
"1569311749951","744","0.3720703","-0.8828125","0.28027344","6.5","49.1875","29.84375"
"1569311750039","745","-1.0927734","-0.5097656","-0.14160156","31.59375","105.5","-67.75"
"1569311750167","746","-0.5888672","-0.3935547","0.2626953","-47.5","83.59375","-22.59375"
"1569311750251","747","-0.75878906","-0.3388672","0.27441406","-31.03125","52.59375","6.34375"
"1569311750339","748","-0.7578125","-0.4345703","0.15625","-22.0","49.59375","-17.46875"
"1569311750432","749","-1.0488281","-0.24121094","0.13378906","-22.59375","16.28125","-16.0625"
"1569311750551","750","-1.2167969","-0.33398438","0.2763672","12.125","34.59375","-9.59375"
"1569311750640","751","-1.1542969","-0.62597656","-0.15820312","-7.875","-114.53125","53.8125"
"1569311750729","752","-0.99316406","-0.6308594","0.265625","50.03125","-93.59375","18.71875"
"1569311750851","753","-0.7001953","-0.27246094","0.30273438","-38.78125","-166.6875","21.59375"
"1569311750969","754","-0.3173828","-0.30566406","0.31640625","-50.0","-56.90625","18.125"
"1569311751031","755","-0.5439453","-0.14355469","0.55859375","-25.34375","57.90625","-10.5625"
"1569311751156","756","-1.2207031","-0.2939453","1.0712891","-16.5625","-55.125","29.53125"
"1569311751239","757","-1.1816406","-0.7890625","0.5673828","-72.03125","-42.4375","6.8125"
"1569311751329","758","-0.6230469","-0.38964844","0.22949219","38.0","39.84375","-36.34375"
"1569311751453","759","-0.9638672","-0.45117188","0.31152344","-22.71875","96.40625","-3.96875"
"1569311751543","760","-0.91796875","-0.36132812","-9.765625E-4","-20.03125","76.46875","-24.5"
"1569311751629","761","-0.8408203","-0.27734375","0.2841797","3.71875","49.25","-14.71875"
"1569311751750","762","-0.9248047","-0.3564453","0.20507812","7.90625","54.1875","-28.40625"
"1569311751844","763","-1.0712891","-0.5439453","0.2841797","-17.78125","24.53125","2.5625"
"1569311751929","764","-1.46875","-0.23828125","0.029296875","-9.46875","-32.25","34.28125"
"1569311752049","765","-1.0029297","-0.76953125","0.06933594","61.625","-112.9375","29.21875"
"1569311752142","766","-1.1386719","-0.3798828","0.3330078","72.90625","-24.1875","28.4375"
"1569311752229","767","-0.43554688","-0.27734375","0.27539062","-51.84375","-79.4375","5.0625"
"1569311752352","768","-0.50097656","-0.19433594","0.40429688","-44.3125","21.15625","-15.09375"
"1569311752440","769","-1.3837891","-0.5341797","0.7451172","-14.3125","9.6875","-10.40625"
"1569311752532","770","-0.8769531","-0.26757812","0.7607422","-15.15625","-26.4375","34.46875"
"1569311752715","771","-0.5341797","-0.6894531","0.51953125","-3.90625","14.5625","-7.28125"
"1569311752738","772","-0.88671875","-0.53125","0.10253906","9.03125","94.09375","-38.65625"
"1569311752834","773","-0.6113281","-0.3798828","0.11425781","34.59375","65.59375","-35.78125"
"1569311752952","774","-0.84472656","-0.30078125","0.26953125","21.15625","59.875","-12.65625"
"1569311753042","775","-0.78125","-0.42871094","0.27441406","11.28125","58.21875","-20.65625"
"1569311753132","776","-1.0634766","-0.37695312","0.21875","-9.40625","32.21875","-4.34375"
"1569311753249","777","-1.2099609","-0.30078125","-0.030273438","51.625","18.78125","5.71875"
"1569311753341","778","-0.95996094","-1.0048828","0.00390625","66.75","-108.65625","46.625"
"1569311753434","779","-1.0029297","-0.140625","-0.19628906","166.65625","-22.15625","17.75"
"1569311753590","780","-0.34570312","-0.27734375","0.13867188","26.0","-82.46875","-15.75"
"1569311753642","781","-0.49902344","-0.18457031","0.36914062","-19.96875","28.65625","-55.6875"
"1569311753730","782","-0.7373047","-0.21484375","0.67578125","-18.6875","49.53125","-18.75"
"1569311753850","783","-0.69433594","-0.17382812","0.87890625","-4.28125","-20.40625","47.90625"
"1569311753947","784","-1.0732422","-1.1347656","0.51953125","16.03125","39.0625","36.125"
"1569311754034","785","-0.65722656","-0.67871094","-0.3564453","68.15625","84.53125","-64.59375"
"1569311754152","786","-0.5917969","-0.36914062","0.2734375","48.875","100.09375","-10.75"
"1569311754239","787","-0.91503906","-0.2841797","0.15625","3.03125","71.59375","-18.15625"
"1569311754333","788","-0.8623047","-0.2841797","0.20410156","15.125","42.46875","-18.15625"
"1569311754454","789","-0.8701172","-0.31445312","0.234375","-25.84375","25.375","-22.0625"
"1569311754539","790","-0.8828125","-0.5019531","0.16699219","-35.84375","11.28125","-13.875"
"1569311754629","791","-1.2626953","-0.27148438","0.08300781","-10.28125","25.0625","3.28125"
"1569311754748","792","-0.8623047","-0.87402344","-0.23632812","15.125","-107.125","51.875"
"1569311754836","793","-0.95410156","-0.36328125","-0.09375","123.40625","-69.71875","25.5"
"1569311754928","794","-0.58203125","-0.25683594","0.54003906","52.90625","-189.53125","32.28125"
"1569311755050","795","-0.47265625","-0.33398438","0.30371094","-55.6875","-62.15625","9.8125"
"1569311755138","796","-0.49902344","-0.22167969","0.546875","-32.84375","50.46875","-9.21875"
"1569311755291","797","-1.1582031","-0.3955078","0.85058594","-27.25","-1.84375","1.09375"
"1569311755350","798","-0.41796875","-0.30566406","0.43164062","-21.0625","-65.8125","32.875"
"1569311755440","799","-0.2529297","-0.61328125","0.42285156","75.53125","67.84375","-24.75"
"1569311755530","800","-1.0507812","-0.32128906","0.21972656","31.125","130.0625","0.71875"
"1569311755648","801","-0.9970703","-0.22558594","0.037109375","-24.125","50.34375","-23.4375"
"1569311755739","802","-0.78027344","-0.27246094","0.23632812","68.03125","70.90625","-19.125"
"1569311755829","803","-0.98339844","-0.3798828","0.25585938","9.25","38.0","-30.53125"
"1569311755948","804","-1.1289062","-0.47753906","0.30859375","37.03125","44.71875","7.375"
"1569311756038","805","-1.2158203","-0.9121094","-0.14355469","56.9375","-78.03125","43.375"
"1569311756128","806","-0.8857422","-0.6669922","0.2578125","106.375","-77.46875","-4.15625"
"1569311756251","807","-0.5917969","-0.2919922","0.171875","-23.28125","-200.15625","-51.53125"
"1569311756342","808","-0.4970703","-0.23046875","0.2890625","18.34375","-30.78125","-37.375"
"1569311756428","809","-0.6875","-0.15527344","0.7685547","-28.03125","50.65625","2.5"
"1569311756552","810","-0.8408203","-0.5410156","0.8535156","-10.625","-32.90625","28.25"
"1569311756642","811","-1.5439453","-0.8261719","0.88378906","-19.25","-38.90625","14.09375"
"1569311756732","812","-1.0263672","-0.52246094","0.2529297","75.71875","36.96875","-48.0625"
"1569311756851","813","-0.7949219","-0.25097656","0.36816406","6.5625","114.0","-23.5625"
"1569311756942","814","-0.95703125","-0.25195312","0.15136719","-14.71875","35.5625","-40.125"
"1569311757032","815","-0.8857422","-0.37402344","0.26171875","12.75","64.625","-0.0625"
"1569311757153","816","-0.7216797","-0.4892578","0.1796875","-0.3125","48.15625","-22.90625"
"1569311757239","817","-1.0927734","-0.37695312","0.24609375","5.125","37.28125","-11.71875"
"1569311757330","818","-1.4589844","-0.22167969","-0.091796875","5.84375","10.96875","20.25"
"1569311757448","819","-1.0361328","-0.765625","-0.1640625","57.40625","-90.84375","35.4375"
"1569311757538","820","-0.95996094","-0.3955078","0.041992188","134.6875","-86.4375","7.5625"
"1569311757632","821","-0.4892578","-0.31054688","0.26367188","-5.09375","-100.34375","-1.34375"
"1569311757749","822","-0.41308594","-0.26464844","0.36132812","-33.71875","-12.28125","-16.25"
"1569311757840","823","-0.8466797","-0.23535156","0.7216797","-24.75","41.0625","-4.21875"
"1569311757931","824","-0.5253906","0.09863281","0.9111328","-15.8125","-49.09375","40.34375"
"1569311758052","825","-0.5605469","-1.0078125","0.5683594","21.34375","28.625","23.25"
"1569311758142","826","-0.91503906","-0.4921875","-0.16015625","47.71875","130.90625","-51.40625"
"1569311758229","827","-0.6123047","-0.50390625","0.19140625","36.3125","131.875","10.65625"
"1569311758350","828","-1.0722656","-0.28515625","0.21582031","-20.40625","77.8125","-12.28125"
"1569311758440","829","-0.8222656","-0.3779297","0.2919922","5.34375","42.15625","-12.71875"
"1569311758530","830","-0.9345703","-0.3154297","0.19824219","-6.1875","38.1875","-24.375"
"1569311758649","831","-1.0585938","-0.4970703","0.3466797","36.59375","49.125","-1.34375"
"1569311758737","832","-1.34375","-0.6142578","-0.041992188","-0.125","-62.5625","54.84375"
"1569311758830","833","-1.0322266","-0.8359375","0.20703125","39.59375","-86.125","17.875"
"1569311758952","834","-1.0195312","-0.20703125","0.33496094","14.625","-147.96875","7.5"
"1569311759042","835","-0.4091797","-0.3359375","0.42285156","-28.15625","-71.3125","-9.78125"
"1569311759131","836","-0.4736328","-0.15527344","0.546875","-8.875","56.125","-25.78125"
"1569311759248","837","-1.1113281","-0.5644531","1.0351562","12.4375","-8.75","1.5625"
"1569311759343","838","-1.203125","-0.7832031","0.7871094","-27.71875","-42.1875","25.9375"
"1569311759431","839","-0.71875","-0.32617188","0.24804688","48.4375","15.0625","-44.03125"
"1569311759550","840","-0.9638672","-0.34179688","0.38476562","-25.65625","99.15625","-31.9375"
"1569311759639","841","-0.92871094","-0.296875","-0.043945312","-5.75","71.21875","-38.03125"
"1569311759729","842","-0.78027344","-0.40039062","0.2109375","9.4375","55.53125","-12.28125"
"1569311759853","843","-0.8359375","-0.34375","0.09667969","7.125","45.5625","-30.03125"
"1569311759944","844","-0.9921875","-0.4033203","0.31835938","-1.40625","25.4375","-6.25"
"1569311760029","845","-1.453125","-0.5625","-0.040039062","-34.0","-36.875","44.65625"
"1569311760146","846","-0.9111328","-0.86035156","0.1953125","52.34375","-88.75","16.59375"
"1569311760239","847","-0.8671875","-0.41601562","0.046875","54.4375","-83.34375","7.375"
"1569311760399","848","-0.5","-0.4404297","0.39257812","-11.4375","-85.9375","7.125"
"1569311760562","849","-0.56152344","-0.23144531","0.3544922","-20.40625","45.09375","-17.59375"
"1569311760563","850","-1.0771484","-0.48828125","0.7236328","-26.1875","19.875","-8.6875"
"1569311760631","851","-0.42773438","-9.765625E-4","0.75390625","11.53125","-23.8125","55.96875"
"1569311760750","852","-0.43164062","-0.859375","0.4326172","-26.25","-0.375","7.5625"
"1569311760839","853","-0.8984375","-0.50097656","-0.087890625","14.375","78.71875","-53.71875"
"1569311760934","854","-0.57910156","-0.578125","0.25390625","4.4375","67.6875","-12.53125"
"1569311761051","855","-0.9189453","-0.27441406","0.16796875","-10.5","52.15625","-12.90625"
"1569311761139","856","-0.8828125","-0.43554688","0.25","2.59375","46.8125","-6.90625"
"1569311761229","857","-0.92285156","-0.32226562","0.18261719","-18.21875","28.4375","-23.5625"
"1569311761352","858","-0.8642578","-0.4892578","0.19628906","-23.75","15.0","-10.75"
"1569311761439","859","-1.2197266","-0.26171875","-0.03515625","20.96875","21.84375","1.03125"
"1569311761531","860","-0.85839844","-1.0185547","-0.083984375","42.71875","-78.875","26.90625"
"1569311761688","861","-0.9921875","-0.21777344","-0.19824219","71.8125","-70.8125","-1.1875"
"1569311761739","862","-0.70703125","-0.4296875","0.1171875","7.1875","-111.71875","5.21875"
"1569311761832","863","-0.81152344","-0.2890625","0.5810547","-65.25","-92.53125","18.125"
"1569311761954","864","-0.87597656","-0.3330078","0.40722656","-31.21875","0.0","27.375"
"1569311762040","865","-0.6386719","-0.37890625","0.54296875","-50.375","-35.21875","15.71875"
"1569311762132","866","-0.7832031","-0.3251953","0.45703125","-54.15625","-11.5","19.5625"
"1569311762249","867","-1.3144531","-0.5214844","0.61816406","-39.5625","-14.25","47.40625"
"1569311762372","868","-0.5654297","-0.109375","0.52441406","-32.78125","-5.5","7.625"
"1569311762432","869","-0.94628906","-0.62597656","0.15332031","-43.28125","13.28125","-0.5"
"1569311762553","870","-0.75683594","-0.46679688","0.064453125","27.4375","37.34375","13.90625"
"1569311762646","871","-0.8173828","-0.49121094","0.18261719","5.34375","34.65625","3.03125"
"1569311762729","872","-0.9042969","-0.38964844","0.1953125","4.9375","35.6875","2.0"
"1569311762818","873","-0.9277344","-0.42285156","0.20898438","-9.46875","6.03125","0.71875"
"1569311762970","874","-0.890625","-0.38671875","0.19042969","-0.125","3.09375","5.0"
"1569311763059","875","-0.9169922","-0.42285156","0.18652344","0.40625","7.375","-3.375"
"1569311763120","876","-0.91308594","-0.43066406","0.16210938","-6.96875","5.46875","-5.75"
"1569311763239","877","-0.9189453","-0.3828125","0.1484375","-24.5","-10.40625","2.59375"
"1569311763331","878","-0.8730469","-0.45898438","0.1640625","-5.09375","-0.0625","-1.25"
"1569311763426","879","-0.9033203","-0.43164062","0.20117188","-18.21875","-4.28125","-4.96875"
"1569311763540","880","-0.89941406","-0.4326172","0.19238281","-4.84375","-0.6875","-1.0"
"1569311763631","881","-0.86621094","-0.4716797","0.16601562","-4.28125","0.40625","-0.5625"
"1569311763748","882","-0.8876953","-0.4501953","0.17773438","-4.53125","0.46875","-1.25"
"1569311763837","883","-0.8847656","-0.46777344","0.16992188","-1.25","0.28125","-0.9375"
"1569311763928","884","-0.88671875","-0.45410156","0.16113281","0.09375","-1.34375","-2.53125"
"1569311764018","885","-0.8769531","-0.45898438","0.18164062","4.0","1.03125","-3.0625"
"1569311764172","886","-0.8808594","-0.4560547","0.15820312","6.46875","2.5","-2.8125"
"1569311764229","887","-0.8779297","-0.44335938","0.17578125","3.71875","2.71875","-2.21875"
"1569311764322","888","-0.8808594","-0.44921875","0.17089844","3.90625","2.125","-1.34375"
"1569311764442","889","-0.88378906","-0.46191406","0.171875","1.625","1.5","-1.3125"
"1569311764533","890","-0.88183594","-0.453125","0.17773438","1.3125","2.0625","-0.75"
"1569311764650","891","-0.8828125","-0.45996094","0.15722656","0.71875","1.8125","-0.3125"
"1569311764740","892","-0.890625","-0.4580078","0.16210938","0.21875","1.09375","-0.6875"
"1569311764832","893","-0.87402344","-0.46484375","0.16796875","-0.625","0.40625","-0.5"
"1569311764921","894","-0.8798828","-0.46289062","0.15039062","-0.9375","0.21875","-0.3125"
"1569311765038","895","-0.8886719","-0.45898438","0.15820312","-1.0625","0.59375","-0.3125"
"1569311765129","896","-0.88964844","-0.46972656","0.15722656","-1.59375","-0.3125","-0.125"
"1569311765249","897","-0.8769531","-0.46972656","0.14453125","-1.46875","-1.0625","0.09375"
"1569311765340","898","-0.8847656","-0.4736328","0.15039062","-2.09375","-0.5","-0.5"
"1569311765429","899","-0.8701172","-0.46972656","0.15820312","-1.1875","-0.8125","0.34375"
"1569311765580","900","-0.8828125","-0.4609375","0.14257812","-2.03125","-0.8125","0.46875"
"1569311765638","901","-0.875","-0.4736328","0.15820312","-3.1875","-1.34375","1.21875"
"1569311765728","902","-0.8769531","-0.4638672","0.15625","-4.53125","-1.96875","0.84375"
"1569311765854","903","-0.8828125","-0.47265625","0.14941406","-4.09375","-1.65625","0.40625"
"1569311765939","904","-0.8847656","-0.47460938","0.14648438","-3.6875","-1.25","0.65625"
"1569311766029","905","-0.8876953","-0.47851562","0.14550781","-2.40625","-0.9375","0.28125"
"1569311766119","906","-0.8779297","-0.4736328","0.15039062","-2.75","-0.6875","0.28125"
"1569311766238","907","-0.8847656","-0.4736328","0.1484375","-1.125","0.0","0.15625"
"1569311766332","908","-0.8691406","-0.4658203","0.14550781","-0.8125","-0.6875","0.34375"
"1569311766418","909","-0.8808594","-0.4736328","0.14746094","0.03125","-0.1875","0.28125"
"1569311766538","910","-0.8808594","-0.4716797","0.1484375","-0.375","-0.625","0.59375"
"1569311766636","911","-0.87109375","-0.4716797","0.1484375","-0.1875","-0.8125","0.28125"
"1569311766721","912","-0.8779297","-0.46777344","0.14355469","0.40625","-0.25","0.40625"
"1569311766842","913","-0.875","-0.46875","0.13964844","0.34375","-0.375","0.34375"
"1569311766927","914","-0.875","-0.45996094","0.15722656","0.65625","-0.25","0.28125"
"1569311767021","915","-0.87890625","-0.4736328","0.15722656","0.21875","-0.375","0.34375"
"1569311767139","916","-0.8857422","-0.4580078","0.1640625","-0.375","-0.6875","0.34375"
"1569311767228","917","-0.8876953","-0.4609375","0.15039062","0.09375","-0.125","0.40625"
"1569311767321","918","-0.8798828","-0.46875","0.15527344","0.40625","-0.125","0.28125"
"1569311767443","919","-0.87597656","-0.46777344","0.15332031","0.09375","-0.0625","0.40625"
"1569311767531","920","-0.87402344","-0.46679688","0.15332031","-0.0625","-0.125","0.28125"
"1569311767623","921","-0.88183594","-0.4580078","0.15039062","0.09375","0.28125","0.15625"
"1569311767773","922","-0.87597656","-0.46289062","0.15917969","0.21875","0.53125","0.21875"
"1569311767832","923","-0.8828125","-0.46679688","0.16015625","0.53125","0.59375","0.21875"
"1569311767922","924","-0.8857422","-0.4658203","0.15820312","0.0","0.21875","0.03125"
"1569311768081","925","-0.8886719","-0.45214844","0.16308594","-0.625","-0.125","0.03125"
"1569311768130","926","-0.8955078","-0.46289062","0.15625","-0.25","0.09375","0.15625"
"1569311768228","927","-0.8769531","-0.4658203","0.15722656","-0.8125","-0.0625","0.34375"
"1569311768342","928","-0.8847656","-0.46289062","0.16503906","-0.5","0.03125","0.09375"
"1569311768433","929","-0.8798828","-0.4736328","0.15625","-0.75","-0.0625","0.09375"
"1569311768518","930","-0.8828125","-0.46777344","0.15039062","-0.625","-0.3125","0.21875"
"1569311768642","931","-0.8828125","-0.47070312","0.15429688","-0.5625","-0.0625","0.15625"
"1569311768730","932","-0.8691406","-0.47265625","0.15527344","-0.875","-0.375","0.15625"
"1569311768821","933","-0.8798828","-0.46484375","0.16113281","-0.0625","-0.1875","0.09375"
"1569311768939","934","-0.8828125","-0.46972656","0.15527344","0.53125","0.03125","0.21875"
"1569311769031","935","-0.8828125","-0.45898438","0.15917969","0.96875","0.28125","0.34375"
"1569311769123","936","-0.8847656","-0.4658203","0.15820312","0.96875","-0.0625","0.15625"
"1569311769239","937","-0.8886719","-0.4638672","0.16113281","1.09375","0.09375","0.03125"
"1569311769335","938","-0.8828125","-0.46191406","0.14941406","1.4375","0.09375","0.09375"
"1569311769423","939","-0.8808594","-0.4638672","0.15722656","1.15625","0.15625","0.34375"
"1569311769541","940","-0.8847656","-0.45996094","0.15429688","0.78125","0.15625","0.53125"
"1569311769632","941","-0.8886719","-0.46777344","0.15625","0.65625","0.03125","0.21875"
"1569311769732","942","-0.8886719","-0.45703125","0.16015625","-0.5","-0.375","0.65625"
"1569311769842","943","-0.8769531","-0.4658203","0.15429688","-1.1875","-0.25","0.96875"
"1569311769932","944","-0.8876953","-0.46777344","0.17773438","-0.6875","0.0","0.28125"
"1569311770021","945","-0.8876953","-0.47070312","0.15234375","0.59375","0.03125","0.34375"
"1569311770138","946","-0.88671875","-0.4638672","0.16210938","0.96875","0.65625","0.03125"
"1569311770229","947","-0.87890625","-0.45996094","0.14257812","1.28125","0.71875","-0.3125"
"1569311770326","948","-0.8808594","-0.45996094","0.16015625","1.875","1.28125","-0.4375"
"1569311770440","949","-0.8769531","-0.4560547","0.16113281","1.4375","1.03125","-0.5625"
"1569311770531","950","-0.8828125","-0.45507812","0.15917969","1.5","1.21875","-0.5625"
"1569311770653","951","-0.88183594","-0.45410156","0.1640625","1.09375","0.46875","-0.875"
"1569311770738","952","-0.8847656","-0.45214844","0.15527344","0.34375","0.46875","-0.5"
"1569311770834","953","-0.8828125","-0.45898438","0.15332031","0.03125","0.0","-0.4375"
"1569311770924","954","-0.8876953","-0.4638672","0.16601562","0.21875","0.28125","-0.4375"
"1569311771042","955","-0.89453125","-0.46679688","0.16308594","0.46875","-0.375","-0.5"
"1569311771132","956","-0.89160156","-0.45996094","0.16503906","-0.125","-0.5","-0.0625"
"1569311771232","957","-0.87890625","-0.46972656","0.15917969","-0.25","-0.6875","-0.1875"
"1569311771342","958","-0.875","-0.4716797","0.15820312","-1.125","-0.3125","-0.1875"
"1569311771436","959","-0.8925781","-0.46289062","0.15722656","-0.9375","-0.8125","0.15625"
"1569311771521","960","-0.875","-0.47460938","0.15820312","-0.75","-0.5625","0.0"
"1569311771644","961","-0.8847656","-0.45996094","0.15917969","-0.1875","-0.5625","0.21875"
"1569311771729","962","-0.87890625","-0.4638672","0.16503906","-0.75","-0.875","-0.0625"
"1569311771823","963","-0.88378906","-0.4609375","0.15136719","-0.125","-0.6875","-0.25"
"1569311771942","964","-0.8886719","-0.47558594","0.17089844","0.40625","-0.625","-0.0625"
"1569311772029","965","-0.8828125","-0.4716797","0.16503906","0.0","-0.5","0.21875"
"1569311772127","966","-0.8769531","-0.47070312","0.16894531","0.21875","0.0","0.15625"
"1569311772239","967","-0.87597656","-0.46777344","0.14941406","-0.0625","-0.125","0.0"
"1569311772333","968","-0.88671875","-0.46484375","0.18847656","-0.25","0.28125","0.34375"
"1569311772422","969","-0.87890625","-0.46972656","0.16796875","-0.0625","-0.3125","0.09375"
"1569311772542","970","-0.8828125","-0.46972656","0.17480469","-0.625","-0.3125","0.15625"
"1569311772633","971","-0.8779297","-0.46972656","0.16601562","0.0","0.09375","0.15625"
"1569311772719","972","-0.8876953","-0.4580078","0.17285156","-0.8125","-0.4375","0.28125"
"1569311772838","973","-0.8642578","-0.4716797","0.16503906","-0.25","0.03125","0.0"
"1569311772932","974","-0.87890625","-0.4716797","0.16015625","-1.0625","-0.1875","0.28125"
"1569311773019","975","-0.8876953","-0.4736328","0.16601562","-0.5","-0.125","0.28125"
"1569311773177","976","-0.8808594","-0.47558594","0.16699219","-0.125","0.03125","0.15625"
"1569311773240","977","-0.87890625","-0.46191406","0.15722656","0.28125","0.40625","0.15625"
"1569311773320","978","-0.8857422","-0.46679688","0.16308594","1.09375","0.40625","0.34375"
"1569311773442","979","-0.8779297","-0.4638672","0.15820312","0.53125","0.0","0.15625"
"1569311773532","980","-0.88671875","-0.4658203","0.16210938","-0.5625","0.03125","0.28125"
"1569311773622","981","-0.87597656","-0.45703125","0.15820312","-1.96875","-0.75","0.40625"
"1569311773775","982","-0.8955078","-0.43066406","0.16503906","-7.8125","-1.78125","1.21875"
"1569311773832","983","-0.89160156","-0.43554688","0.171875","-16.1875","-6.375","3.15625"
"1569311773921","984","-0.85058594","-0.47753906","0.14257812","-20.53125","-7.21875","5.84375"
"1569311774044","985","-0.875","-0.4873047","0.15234375","-24.5625","-8.5625","3.78125"
"1569311774134","986","-0.88964844","-0.45996094","0.1328125","-21.0625","-6.25","3.28125"
"1569311774228","987","-0.8798828","-0.48046875","0.13574219","-17.09375","-4.46875","2.96875"
"1569311774379","988","-0.88378906","-0.48046875","0.1328125","-9.65625","-2.75","2.0625"
"1569311774432","989","-0.87597656","-0.50097656","0.11425781","-2.28125","-0.625","1.09375"
"1569311774522","990","-0.87890625","-0.48535156","0.12109375","3.84375","2.65625","0.09375"
"1569311774639","991","-0.8876953","-0.4716797","0.123046875","5.90625","2.84375","-0.125"
"1569311774731","992","-0.8886719","-0.4560547","0.14160156","9.03125","3.09375","-1.0"
"1569311774820","993","-0.88671875","-0.47558594","0.13085938","12.875","4.5","-2.09375"
"1569311774938","994","-0.8828125","-0.45507812","0.12109375","14.21875","5.0625","-2.59375"
"1569311775028","995","-0.8847656","-0.45703125","0.15722656","14.09375","5.65625","-2.75"
"1569311775119","996","-0.8847656","-0.45507812","0.15234375","12.0","4.625","-2.59375"
"1569311775238","997","-0.9042969","-0.46777344","0.15136719","8.34375","3.53125","-1.90625"
"1569311775329","998","-0.88964844","-0.45410156","0.14160156","6.40625","3.53125","-1.40625"
"1569311775419","999","-0.8857422","-0.4501953","0.15039062","5.90625","3.65625","-1.0"
"1569311775538","1000","-0.8876953","-0.4580078","0.14550781","5.0625","1.875","-0.3125"
"1569311775628","1001","-0.8886719","-0.4716797","0.13964844","0.78125","0.0","-0.0625"
"1569311775718","1002","-0.8779297","-0.47851562","0.13964844","1.09375","0.15625","0.34375"
"1569311775838","1003","-0.8925781","-0.47070312","0.14648438","1.875","0.28125","0.15625"
"1569311775928","1004","-0.8808594","-0.47070312","0.15917969","1.3125","-0.0625","0.09375"
"1569311776050","1005","-0.8769531","-0.4716797","0.15039062","0.34375","-1.0625","0.28125"
"1569311776138","1006","-0.8925781","-0.45507812","0.14648438","1.875","-0.125","-0.125"
"1569311776231","1007","-0.8876953","-0.45996094","0.14550781","0.96875","0.03125","-0.4375"
"1569311776322","1008","-0.89160156","-0.4580078","0.16503906","0.78125","-0.375","-0.75"
"1569311776439","1009","-0.8886719","-0.46289062","0.16308594","0.15625","0.09375","-0.875"
"1569311776529","1010","-0.8847656","-0.46484375","0.15917969","-0.0625","-0.4375","-0.9375"
"1569311776619","1011","-0.88964844","-0.46875","0.15917969","-0.1875","-0.75","-0.9375"
"1569311776740","1012","-0.88671875","-0.46484375","0.15527344","-1.3125","-0.375","-0.0625"
"1569311776828","1013","-0.8828125","-0.4609375","0.16503906","-1.78125","-0.5","-0.0625"
"1569311776919","1014","-0.88183594","-0.46289062","0.16210938","-1.90625","-0.4375","-0.125"
"1569311777039","1015","-0.88183594","-0.4736328","0.15234375","-1.46875","-0.3125","-0.25"
"1569311777130","1016","-0.8808594","-0.4765625","0.15820312","-0.0625","-0.1875","-0.375"
"1569311777220","1017","-0.8671875","-0.4736328","0.15039062","0.96875","0.28125","-0.75"
"1569311777342","1018","-0.8769531","-0.4794922","0.15332031","1.15625","0.46875","-0.4375"
"1569311777432","1019","-0.87109375","-0.47753906","0.14453125","2.125","0.78125","-0.6875"
"1569311777524","1020","-0.87402344","-0.47265625","0.14648438","2.0","0.53125","-0.25"
"1569311777737","1021","-0.8847656","-0.47265625","0.16210938","1.875","0.46875","-0.3125"
"1569311777738","1022","-0.87890625","-0.47460938","0.16015625","1.875","0.09375","-0.125"
"1569311777820","1023","-0.87597656","-0.4580078","0.1640625","0.65625","0.15625","0.21875"
"1569311777942","1024","-0.87597656","-0.46777344","0.16503906","0.59375","0.09375","-0.0625"
"1569311778033","1025","-0.8847656","-0.46777344","0.16894531","0.28125","-0.1875","0.03125"
"1569311778119","1026","-0.8769531","-0.47265625","0.16699219","-0.0625","-0.1875","0.65625"
"1569311778240","1027","-0.8828125","-0.46679688","0.16796875","-0.125","-0.25","0.40625"
"1569311778331","1028","-0.8828125","-0.46679688","0.16894531","-0.4375","-0.25","0.53125"
"1569311778419","1029","-0.88671875","-0.48632812","0.16308594","-0.8125","-0.5","0.46875"
"1569311778543","1030","-0.890625","-0.4736328","0.16503906","-0.4375","-0.375","0.53125"
"1569311778631","1031","-0.8828125","-0.45996094","0.1640625","-0.4375","-0.1875","0.53125"
"1569311778724","1032","-0.88183594","-0.46972656","0.16796875","-1.125","-0.1875","0.53125"
"1569311778842","1033","-0.87597656","-0.46972656","0.16210938","-1.25","-0.4375","0.53125"
"1569311778933","1034","-0.88183594","-0.47265625","0.15625","-1.25","-0.5","0.59375"
"1569311779026","1035","-0.88671875","-0.4716797","0.16210938","-1.0625","0.03125","0.59375"
"1569311779141","1036","-0.8847656","-0.44921875","0.16894531","0.0","0.09375","0.28125"
"1569311779231","1037","-0.8847656","-0.453125","0.15429688","0.09375","0.0","0.15625"
"1569311779319","1038","-0.8798828","-0.47070312","0.15722656","-0.6875","-0.3125","0.03125"
"1569311779444","1039","-0.87890625","-0.46972656","0.16894531","-0.6875","-0.5","-0.1875"
"1569311779599","1040","-0.8808594","-0.46679688","0.17480469","-1.46875","-0.1875","-0.375"
"1569311779625","1041","-0.8798828","-0.47265625","0.16699219","-0.5625","0.46875","-0.1875"
"1569311779738","1042","-0.8876953","-0.45996094","0.15527344","-0.625","0.59375","-0.4375"
"1569311779830","1043","-0.8828125","-0.46484375","0.16113281","0.0","0.96875","-0.375"
"1569311779923","1044","-0.88183594","-0.46972656","0.15917969","-0.4375","1.03125","-0.3125"
"1569311780009","1045","-0.8779297","-0.46484375","0.16015625","-1.59375","0.78125","-0.3125"
"1569311780132","1046","-0.8798828","-0.47265625","0.16308594","-2.8125","0.96875","0.34375"
"1569311780227","1047","-0.8886719","-0.45214844","0.1484375","-4.59375","0.65625","0.53125"
"1569311780310","1048","-0.8857422","-0.45898438","0.15527344","-7.28125","-0.125","1.21875"
"1569311780430","1049","-0.8798828","-0.4609375","0.14160156","-9.90625","-0.375","0.65625"
"1569311780520","1050","-0.87402344","-0.4501953","0.12402344","-13.125","-0.5","2.0"
"1569311780612","1051","-0.89746094","-0.45117188","0.111328125","-15.40625","-1.71875","2.78125"
"1569311780734","1052","-0.9091797","-0.42089844","0.12011719","-2.53125","-5.15625","5.34375"
"1569311780888","1053","-0.8769531","-0.4248047","0.059570312","-17.59375","-10.4375","8.59375"
"1569311780912","1054","-0.8642578","-0.4794922","0.08886719","-36.6875","-12.03125","1.5"
"1569311781032","1055","-0.93652344","-0.37597656","0.14355469","-40.3125","-2.09375","2.25"
"1569311781122","1056","-0.91796875","-0.36816406","0.12011719","-45.5","2.5625","0.03125"
"1569311781243","1057","-0.8730469","-0.34960938","0.107421875","-32.5","6.15625","-6.71875"
"1569311781328","1058","-0.94433594","-0.38476562","0.16015625","-20.59375","13.46875","-13.25"
"1569311781421","1059","-1.1396484","-0.24511719","0.22167969","-0.5625","-14.34375","-22.0625"
"1569311781511","1060","-0.9814453","-0.50683594","0.07128906","-41.6875","-105.84375","8.90625"
"1569311781629","1061","-1.0595703","-0.64941406","0.31347656","118.03125","-105.71875","40.5625"
"1569311781722","1062","-0.8076172","-0.32617188","0.171875","-26.1875","-101.8125","63.15625"
"1569311781809","1063","-0.39257812","-0.25683594","0.3623047","-70.8125","-70.4375","44.46875"
"1569311781930","1064","-0.5595703","-0.23046875","0.56152344","-81.5","8.53125","-3.625"
"1569311782022","1065","-1.0029297","-0.24902344","0.9375","-45.25","-15.40625","36.125"
"1569311782143","1066","-1.1777344","-1.0400391","0.45117188","-23.8125","4.75","24.8125"
"1569311782234","1067","-0.63183594","-0.42382812","-0.19824219","79.28125","76.59375","-32.125"
"1569311782319","1068","-0.47460938","-0.45117188","0.30371094","-32.4375","101.4375","-10.75"
"1569311782409","1069","-0.8076172","-0.29003906","0.28027344","-61.90625","101.375","-11.375"
"1569311782532","1070","-0.66796875","-0.25683594","0.14550781","-9.40625","53.375","-31.9375"
"1569311782619","1071","-1.2587891","-0.4091797","0.09765625","-17.40625","60.09375","-5.75"
"1569311782744","1072","-1.2480469","-0.3203125","0.43945312","-9.0625","3.40625","-29.875"
"1569311782829","1073","-0.5830078","-0.17578125","-0.13671875","-71.4375","-124.78125","75.0625"
"1569311782918","1074","0.056640625","-0.22167969","-2.0","336.59375","5.21875","57.40625"
"1569311783012","1075","-0.7519531","-0.0078125","0.99316406","-39.03125","-233.28125","-2.46875"
"1569311783133","1076","0.24609375","-0.27929688","0.6035156","-174.40625","3.28125","-12.65625"
"1569311783221","1077","-0.5546875","-0.72265625","-0.0029296875","126.28125","140.4375","33.5625"
"1569311783338","1078","-0.8408203","-0.3095703","0.5019531","38.25","37.75","-17.21875"
"1569311783431","1079","-1.84375","-0.16113281","0.6308594","-131.3125","191.15625","-50.25"
"1569311783523","1080","-0.7783203","-0.73828125","0.5859375","-56.15625","99.53125","9.5"
"1569311783609","1081","0.044921875","0.16503906","-0.05859375","40.21875","-11.78125","-8.3125"
"1569311783733","1082","-0.8359375","-0.93652344","0.033203125","68.71875","-144.375","4.1875"
"1569311783820","1083","-2.0","-0.6621094","0.9814453","121.75","-131.4375","-67.875"
"1569311783911","1084","0.0546875","-0.0625","-0.11425781","-114.21875","-62.75","34.40625"
"1569311784032","1085","0.0546875","0.09472656","-0.03125","-50.84375","54.0625","40.4375"
"1569311784121","1086","0.6982422","-0.48242188","-1.5703125","53.375","-80.40625","126.75"
"1569311784208","1087","-1.1503906","-0.13476562","-0.12988281","17.75","146.90625","-56.21875"
"1569311784330","1088","-1.1894531","-0.546875","0.28222656","-131.25","232.65625","16.34375"
"1569311784422","1089","0.19140625","0.055664062","-0.18359375","7.96875","54.71875","-33.21875"
"1569311784509","1090","-0.3701172","0.028320312","0.017578125","27.5625","-4.78125","27.4375"
"1569311784632","1091","-2.0","-2.0","-0.123046875","117.53125","-187.34375","71.03125"
"1569311784750","1092","-1.7880859","-0.37402344","1.5068359","-70.21875","-200.03125","-25.03125"
"1569311784809","1093","0.19921875","0.08691406","0.58203125","-124.59375","29.34375","-45.65625"
"1569311784934","1094","-0.20898438","0.038085938","0.2861328","-65.03125","92.21875","35.5625"
"1569311785022","1095","-2.0","-2.0","1.7265625","28.96875","-149.5625","116.125"
"1569311785113","1096","-2.0","-0.828125","0.7392578","28.65625","121.5","-38.84375"
"1569311785228","1097","-0.89941406","-0.34375","0.23828125","-47.0","161.90625","-10.03125"
"1569311785319","1098","-0.32714844","-0.22167969","0.22460938","2.4375","91.28125","-22.65625"
"1569311785409","1099","-0.7861328","-0.018554688","0.119140625","5.84375","66.5625","-39.75"
"1569311785532","1100","-1.4882812","-0.62109375","0.4482422","-40.90625","0.65625","6.28125"
"1569311785622","1101","-0.9248047","-0.8105469","-0.037109375","-1.25","-129.40625","66.34375"
"1569311785712","1102","-1.0214844","-0.5644531","0.0048828125","155.0","-53.84375","2.4375"
"1569311785829","1103","-0.40625","-0.08886719","0.022460938","-23.21875","-146.0","7.375"
"1569311785953","1104","-0.38378906","0.16113281","0.45996094","-73.25","22.3125","-17.65625"
"1569311786009","1105","-1.0830078","-0.76171875","1.2451172","-6.3125","-25.96875","34.65625"
"1569311786129","1106","-0.8339844","-0.5234375","0.40625","58.15625","50.40625","21.28125"
"1569311786219","1107","-1.2285156","-0.43945312","-0.022460938","70.34375","156.0625","-48.34375"
"1569311786310","1108","-0.3798828","-0.48046875","0.2421875","-61.21875","63.40625","-12.84375"
"1569311786429","1109","-0.68847656","-0.2763672","0.2998047","4.8125","96.78125","-2.15625"
"1569311786521","1110","-0.74609375","-0.42578125","0.13476562","4.8125","52.09375","-41.75"
"1569311786611","1111","-1.1240234","-0.35351562","0.22753906","-14.40625","26.28125","10.40625"
"1569311786733","1112","-1.265625","-0.9423828","-0.27929688","4.6875","-82.96875","74.5"
"1569311786819","1113","-0.9511719","-0.7529297","0.29785156","150.0","-73.6875","2.84375"
"1569311786908","1114","-0.30566406","0.041015625","0.01171875","97.21875","-196.25","7.6875"
